milliseconds,orientationx,orientationy,orientationz,angVelocityx,angVelocityy,angVelocityz,linAccelerationx,linAccelerationy,linAccelerationz,magneticx,magneticy,magneticz,accelerationx,accelerationy,accelerationz,gravityx,gravityy,gravityz,altitude
5401092,61.19,-61.62,140.81,0.05,0.06,0.06,-0.17,-0.11,-0.03,37.19,29.25,2.69,-8.93,-3.07,-3.68,-8.63,-2.93,-3.61,50.37
5401123,61.56,-61.69,140.81,0.26,0.03,0.09,-0.10,-0.05,0.01,37.19,29.25,2.69,-8.74,-2.99,-3.58,-8.63,-2.93,-3.60,50.41
5401146,62.00,-61.69,140.62,0.32,0.03,0.11,0.02,0.05,0.11,37.56,28.56,2.25,-8.61,-2.89,-3.47,-8.63,-2.94,-3.58,50.35
5401177,62.38,-61.75,140.56,0.15,0.04,0.09,0.16,0.11,0.10,37.56,28.56,2.25,-8.47,-2.82,-3.47,-8.64,-2.94,-3.57,50.33
5401203,62.31,-61.75,140.75,-0.04,0.05,0.04,0.13,0.05,-0.12,36.88,28.88,3.19,-8.52,-2.87,-3.78,-8.64,-2.92,-3.59,50.32
5401232,62.38,-61.75,140.94,0.07,0.07,0.05,0.09,0.12,-0.23,36.88,28.88,3.19,-8.54,-2.79,-3.83,-8.64,-2.91,-3.60,50.23
5401261,62.50,-61.75,141.00,0.13,0.08,0.06,0.19,0.17,-0.10,37.56,28.88,0.56,-8.44,-2.73,-3.71,-8.63,-2.91,-3.61,50.24
5401289,62.75,-61.69,141.19,0.13,0.09,0.06,-0.16,0.10,0.05,36.88,28.88,2.69,-8.92,-2.80,-3.52,-8.63,-2.91,-3.62,50.28
5401320,63.00,-61.56,141.38,0.08,0.13,0.07,-0.44,0.12,0.19,36.88,28.88,2.69,-9.07,-2.77,-3.46,-8.62,-2.90,-3.65,50.27
5401349,63.19,-61.44,141.75,0.12,0.20,0.12,-0.44,0.15,0.13,38.00,27.75,2.38,-8.86,-2.64,-3.55,-8.61,-2.88,-3.69,50.32
5401380,63.69,-61.31,142.25,0.33,0.30,0.19,0.04,0.44,0.14,38.00,27.75,2.38,-8.55,-2.42,-3.59,-8.59,-2.87,-3.73,50.24
5401410,64.44,-61.06,142.81,0.33,0.39,0.20,0.27,0.44,-0.10,38.69,28.19,3.19,-8.29,-2.41,-3.90,-8.57,-2.85,-3.80,50.22
5401439,65.25,-60.69,143.44,0.37,0.40,0.18,0.26,0.36,-0.26,38.69,28.19,3.19,-8.34,-2.50,-4.20,-8.54,-2.85,-3.87,50.17
5401470,66.38,-60.38,143.75,0.50,0.36,0.17,-0.11,0.17,-0.27,38.38,27.50,2.25,-8.63,-2.69,-4.19,-8.51,-2.87,-3.92,50.17
5401499,67.69,-60.12,143.75,0.56,0.27,0.16,0.09,0.14,-0.09,38.38,27.50,2.69,-8.03,-2.79,-3.93,-8.50,-2.89,-3.94,50.18
5401530,68.94,-60.00,143.62,0.58,0.19,0.19,0.82,-0.04,0.02,38.38,27.50,2.69,-7.66,-2.95,-3.92,-8.49,-2.91,-3.94,50.15
5401560,70.12,-60.00,143.38,0.66,0.14,0.27,0.54,-0.40,-0.11,39.06,27.75,3.19,-7.95,-3.32,-4.03,-8.50,-2.91,-3.92,50.21
5401589,71.38,-60.19,143.19,0.67,0.10,0.34,0.04,-0.48,-0.16,39.06,27.75,3.19,-8.62,-3.40,-4.06,-8.51,-2.90,-3.89,50.15
5401620,72.25,-60.44,143.19,0.53,0.05,0.32,-0.46,-0.37,0.00,38.69,26.69,1.88,-9.00,-3.26,-3.86,-8.53,-2.89,-3.86,50.16
5401649,72.88,-60.69,143.12,0.41,0.02,0.24,-0.34,-0.14,0.23,39.88,26.25,1.88,-8.81,-2.93,-3.51,-8.55,-2.87,-3.83,50.12
5401680,73.38,-60.75,143.00,0.26,0.03,0.12,0.00,0.07,0.49,39.88,26.25,1.88,-8.52,-2.75,-3.33,-8.56,-2.87,-3.81,50.18
5401711,73.94,-60.75,142.88,0.29,0.08,0.08,0.21,0.41,0.37,39.50,26.00,1.38,-8.33,-2.47,-3.43,-8.55,-2.89,-3.81,50.17
5401740,74.75,-60.69,142.69,0.40,0.15,0.08,0.43,0.50,0.18,39.50,26.00,1.38,-8.02,-2.47,-3.70,-8.55,-2.91,-3.81,50.14
5401771,76.00,-60.56,142.31,0.62,0.19,0.12,0.73,0.00,-0.26,40.19,25.19,1.00,-7.80,-2.94,-4.07,-8.53,-2.95,-3.81,50.28
5401799,77.75,-60.44,141.81,0.81,0.21,0.18,0.54,-0.32,-0.48,40.56,26.00,-0.25,-7.99,-3.30,-4.28,-8.53,-2.99,-3.79,50.22
5401825,79.50,-60.44,141.31,0.82,0.17,0.25,-0.09,-0.73,-0.62,40.56,26.00,-0.25,-8.81,-3.77,-4.32,-8.53,-3.02,-3.76,50.14
5401855,80.81,-60.62,140.88,0.65,0.06,0.25,-0.56,-0.74,-0.30,41.00,26.00,1.00,-9.11,-3.77,-4.03,-8.54,-3.03,-3.73,50.14
5401883,81.62,-60.81,140.56,0.44,0.00,0.20,-0.56,-0.54,0.11,41.00,26.00,1.00,-9.12,-3.57,-3.58,-8.56,-3.03,-3.69,50.22
5401913,82.00,-60.94,140.44,0.29,0.00,0.13,-0.30,-0.33,0.38,40.56,25.56,-1.19,-8.88,-3.36,-3.27,-8.57,-3.02,-3.66,50.23
5401942,82.38,-61.06,140.31,0.19,0.04,0.09,0.14,-0.03,0.61,40.56,24.50,-1.06,-8.43,-3.06,-3.03,-8.58,-3.02,-3.65,50.25
5401972,82.69,-61.06,140.31,0.16,0.11,0.09,0.60,0.08,0.46,40.56,24.50,-1.06,-7.97,-2.93,-3.19,-8.58,-3.02,-3.65,50.20
5402001,83.06,-61.00,140.50,0.18,0.17,0.10,0.72,-0.05,0.00,40.56,24.75,-1.50,-7.85,-3.07,-3.68,-8.57,-3.01,-3.68,50.21
5402031,83.56,-60.81,140.88,0.27,0.24,0.16,0.33,-0.16,-0.46,40.56,24.75,-1.50,-8.22,-3.16,-4.17,-8.56,-3.00,-3.71,50.26
5402063,84.12,-60.75,141.25,0.32,0.17,0.25,0.01,-0.25,-0.64,41.38,24.50,-2.00,-8.55,-3.23,-4.38,-8.56,-2.98,-3.73,50.25
5402092,84.56,-60.81,141.62,0.33,0.11,0.26,-0.38,-0.24,-0.43,41.25,24.06,-0.19,-8.95,-3.19,-4.17,-8.56,-2.95,-3.74,50.30
5402122,85.00,-61.00,141.81,0.36,0.10,0.25,-0.14,-0.16,0.04,41.25,24.06,-0.19,-8.72,-3.09,-3.69,-8.58,-2.92,-3.73,50.26
5402151,85.56,-61.06,141.94,0.40,0.12,0.22,0.02,-0.10,0.27,42.06,23.69,-0.19,-8.48,-3.06,-3.38,-8.58,-2.91,-3.73,50.20
5402181,86.31,-61.06,142.00,0.40,0.15,0.18,0.18,-0.27,0.36,42.06,23.69,-0.19,-8.40,-3.19,-3.37,-8.58,-2.91,-3.73,50.18
5402212,87.12,-61.00,142.00,0.31,0.18,0.13,0.10,-0.37,0.17,42.38,23.00,-2.00,-8.46,-3.30,-3.57,-8.57,-2.92,-3.74,50.16
5402241,87.75,-60.88,141.94,0.16,0.16,0.09,0.00,-0.40,0.09,42.06,22.56,-2.00,-8.58,-3.30,-3.67,-8.56,-2.94,-3.76,50.20
5402271,87.94,-60.75,142.06,0.01,0.10,0.08,0.23,-0.26,0.05,42.06,22.56,-2.00,-8.32,-3.20,-3.73,-8.55,-2.93,-3.78,50.23
5402300,87.75,-60.69,142.50,-0.10,0.08,0.10,0.50,-0.04,0.08,42.25,23.00,-0.69,-7.91,-2.80,-3.73,-8.55,-2.90,-3.81,50.31
5402325,87.31,-60.69,143.19,-0.13,0.10,0.14,0.60,0.19,-0.03,42.25,23.00,-0.69,-7.99,-2.65,-3.95,-8.55,-2.85,-3.85,50.32
5402355,87.06,-60.69,143.88,0.05,0.14,0.20,0.32,0.30,-0.23,42.69,21.88,-0.19,-8.23,-2.52,-4.10,-8.55,-2.82,-3.87,50.32
5402384,87.19,-60.75,144.38,0.21,0.16,0.22,0.18,0.34,-0.36,42.69,21.88,-0.19,-8.37,-2.43,-4.26,-8.55,-2.78,-3.89,50.31
5402414,87.50,-60.69,144.62,0.39,0.17,0.22,0.16,0.07,-0.69,42.75,22.25,-1.06,-8.38,-2.69,-4.60,-8.55,-2.76,-3.91,50.26
5402443,88.38,-60.69,144.69,0.63,0.15,0.24,-0.03,-0.30,-0.80,42.69,21.50,-0.69,-8.58,-3.08,-4.71,-8.55,-2.77,-3.90,50.27
5402473,89.81,-60.75,144.38,0.85,0.14,0.28,-0.23,-0.60,-0.58,42.69,21.50,-0.69,-8.79,-3.40,-4.46,-8.55,-2.79,-3.88,50.24
5402502,91.56,-60.81,143.81,0.89,0.11,0.28,-0.16,-0.60,-0.09,43.75,21.50,-2.00,-8.73,-3.43,-3.93,-8.56,-2.82,-3.83,50.11
5402532,93.25,-60.94,143.19,0.77,0.09,0.23,0.21,-0.49,0.41,43.75,21.50,-2.00,-8.36,-3.35,-3.38,-8.57,-2.85,-3.79,50.07
5402562,94.56,-61.06,142.69,0.58,0.07,0.17,0.48,-0.43,0.60,43.06,20.75,-1.50,-8.10,-3.31,-3.16,-8.58,-2.87,-3.76,50.07
5402591,95.19,-61.06,142.50,0.14,0.04,0.04,0.56,-0.33,0.64,43.50,19.56,-2.88,-8.02,-3.23,-3.23,-8.58,-2.88,-3.76,50.09
5402622,95.12,-61.00,142.56,-0.11,0.02,-0.06,0.47,-0.43,0.10,43.50,19.56,-2.88,-8.10,-3.31,-3.67,-8.57,-2.88,-3.77,50.09
5402651,94.88,-60.94,142.75,-0.18,0.02,-0.06,0.33,-0.25,-0.15,43.06,19.56,-2.00,-8.28,-3.05,-4.01,-8.57,-2.88,-3.79,50.23
5402682,94.44,-60.81,143.00,-0.26,-0.01,-0.06,0.27,-0.12,-0.47,43.06,19.56,-2.00,-8.29,-2.99,-4.29,-8.56,-2.86,-3.81,50.09
5402712,94.06,-60.88,143.12,-0.09,-0.03,0.00,0.29,-0.22,-0.59,43.06,20.00,-2.50,-8.27,-3.08,-4.41,-8.56,-2.85,-3.81,50.05
5402741,94.19,-60.94,143.12,0.20,0.00,0.11,0.21,-0.31,-0.51,43.75,20.00,-2.00,-8.31,-3.16,-4.22,-8.57,-2.85,-3.81,50.08
5402772,94.88,-60.88,143.06,0.35,0.04,0.18,0.11,-0.40,-0.12,43.75,20.00,-2.00,-8.45,-3.26,-3.92,-8.57,-2.86,-3.80,50.14
5402800,95.62,-61.00,142.88,0.44,0.06,0.17,-0.16,-0.47,0.00,44.19,20.00,-3.25,-8.81,-3.36,-3.71,-8.58,-2.86,-3.78,50.15
5402826,96.44,-61.06,142.62,0.37,0.05,0.11,-0.30,-0.57,0.29,44.19,20.00,-3.25,-8.89,-3.45,-3.47,-8.58,-2.88,-3.76,50.16
5402857,96.94,-61.06,142.44,0.18,0.02,0.03,-0.19,-0.60,0.41,43.75,19.38,-2.88,-8.78,-3.48,-3.34,-8.58,-2.88,-3.75,50.20
5402886,97.00,-61.06,142.38,-0.09,-0.02,-0.04,0.32,-0.42,0.38,43.75,19.38,-2.88,-8.25,-3.31,-3.37,-8.58,-2.89,-3.75,50.18
5402916,96.62,-61.00,142.50,-0.28,-0.05,-0.09,0.43,-0.29,0.01,44.19,18.56,-2.50,-8.14,-3.18,-3.74,-8.58,-2.88,-3.76,50.14
5402945,95.94,-61.00,142.62,-0.31,-0.10,-0.11,0.39,-0.26,-0.22,44.19,19.69,-2.00,-8.18,-3.14,-3.99,-8.58,-2.88,-3.77,50.03
5402977,95.44,-61.06,142.56,-0.22,-0.13,-0.08,0.39,-0.31,-0.31,44.19,19.69,-2.00,-8.19,-3.19,-4.07,-8.58,-2.87,-3.76,50.09
5403006,95.06,-61.19,142.50,-0.12,-0.11,-0.02,0.47,-0.17,-0.14,43.75,19.25,-2.88,-8.11,-3.05,-3.89,-8.59,-2.87,-3.75,50.12
5403036,94.88,-61.19,142.44,-0.09,-0.07,-0.02,0.47,0.00,0.13,43.75,19.25,-2.88,-8.11,-2.87,-3.60,-8.59,-2.87,-3.74,50.14
5403063,94.75,-61.25,142.38,-0.03,-0.02,-0.04,-0.13,-0.04,0.06,44.19,19.69,-2.88,-8.73,-2.91,-3.67,-8.59,-2.87,-3.73,50.09
5403093,94.81,-61.19,142.38,-0.02,-0.00,-0.04,-0.57,-0.07,0.02,43.75,19.69,-3.25,-9.16,-2.95,-3.71,-8.59,-2.88,-3.73,50.08
5403123,94.81,-61.12,142.25,-0.06,-0.02,-0.04,-0.31,0.00,-0.03,43.75,19.69,-3.25,-8.90,-2.89,-3.77,-8.59,-2.89,-3.74,50.01
5403152,94.75,-61.12,142.31,-0.10,0.00,-0.04,0.31,-0.02,-0.19,44.56,19.38,-2.00,-8.27,-2.91,-3.94,-8.58,-2.89,-3.74,50.06
5403183,94.62,-61.06,142.38,-0.08,0.01,-0.03,0.51,-0.04,-0.37,44.56,19.38,-2.00,-8.06,-2.93,-4.13,-8.58,-2.89,-3.75,50.08
5403213,94.56,-61.06,142.38,0.03,-0.00,-0.01,0.23,-0.21,-0.62,44.19,20.06,-2.00,-8.34,-3.11,-4.38,-8.58,-2.89,-3.75,50.09
5403242,94.69,-61.06,142.25,0.09,-0.01,0.00,-0.06,-0.17,-0.45,45.00,20.88,-2.50,-8.65,-3.08,-4.20,-8.58,-2.90,-3.74,50.09
5403273,94.94,-61.06,142.06,0.12,-0.00,-0.01,-0.01,-0.19,-0.06,45.00,20.88,-2.50,-8.59,-3.11,-3.80,-8.58,-2.91,-3.73,50.08
5403301,95.25,-61.06,141.81,0.15,0.01,-0.01,0.18,-0.28,0.10,43.75,20.50,-2.00,-8.34,-3.26,-3.60,-8.58,-2.93,-3.72,50.14
5403332,95.56,-61.00,141.62,0.10,0.02,0.01,0.15,-0.46,-0.05,43.75,20.50,-2.00,-8.42,-3.41,-3.78,-8.57,-2.94,-3.72,50.13
5403363,95.81,-60.94,141.56,-0.02,0.03,-0.01,0.08,-0.34,-0.17,43.06,19.38,-3.25,-8.48,-3.31,-3.91,-8.56,-2.96,-3.73,50.24
5403392,95.81,-60.81,141.56,-0.08,0.02,-0.03,0.20,-0.17,-0.05,43.50,20.06,-2.50,-8.39,-3.09,-3.78,-8.56,-2.96,-3.75,50.18
5403422,95.62,-60.75,141.69,-0.16,-0.01,-0.06,0.14,-0.11,-0.05,43.50,20.06,-2.50,-8.41,-3.08,-3.82,-8.55,-2.96,-3.76,50.19
5403452,95.44,-60.69,141.75,-0.14,-0.01,-0.06,0.17,-0.06,-0.01,43.75,19.69,-2.00,-8.39,-3.03,-3.80,-8.54,-2.97,-3.77,50.25
5403483,95.25,-60.56,141.81,-0.11,0.01,-0.05,0.03,0.02,-0.12,43.75,19.69,-2.00,-8.50,-2.94,-3.91,-8.54,-2.97,-3.78,50.25
5403513,95.12,-60.50,141.94,-0.04,0.04,-0.03,0.03,0.07,-0.15,43.06,20.50,-1.50,-8.49,-2.89,-3.95,-8.53,-2.97,-3.80,50.29
5403542,95.12,-60.44,142.00,-0.03,0.04,-0.04,0.18,0.08,-0.18,43.06,20.06,-1.50,-8.33,-2.92,-4.03,-8.52,-2.97,-3.81,50.22
5403573,95.19,-60.31,142.06,0.01,0.03,-0.03,0.24,0.04,-0.08,43.06,20.06,-1.50,-8.27,-2.93,-3.91,-8.51,-2.98,-3.83,50.21
5403602,95.31,-60.19,142.00,0.02,0.03,-0.05,0.18,-0.02,-0.02,43.06,21.19,-2.50,-8.29,-3.09,-3.88,-8.51,-3.00,-3.83,50.23
5403633,95.50,-60.12,141.88,0.01,0.02,-0.06,0.13,-0.19,-0.05,43.06,21.19,-2.50,-8.36,-3.21,-3.89,-8.50,-3.02,-3.84,50.20
5403663,95.62,-60.00,141.75,-0.01,0.01,-0.05,0.16,-0.15,-0.12,43.50,20.88,-2.50,-8.33,-3.19,-3.97,-8.49,-3.03,-3.85,50.21
5403692,95.81,-59.88,141.69,0.02,0.03,-0.05,0.23,-0.03,-0.06,43.75,20.50,-1.06,-8.24,-3.09,-3.92,-8.48,-3.05,-3.86,50.14
5403723,96.00,-59.75,141.56,0.05,0.03,-0.04,0.23,-0.03,-0.05,43.75,20.50,-1.06,-8.23,-3.10,-3.91,-8.47,-3.06,-3.86,50.14
5403752,96.19,-59.69,141.44,0.03,0.02,-0.04,0.15,-0.13,-0.03,44.19,21.19,-1.50,-8.31,-3.22,-3.90,-8.46,-3.08,-3.86,50.11
5403783,96.38,-59.62,141.38,0.01,0.03,-0.02,0.00,-0.16,-0.11,44.19,21.19,-1.50,-8.46,-3.25,-3.98,-8.46,-3.09,-3.87,50.23
5403814,96.44,-59.56,141.44,0.01,0.03,-0.01,0.00,-0.07,-0.09,43.06,20.88,-2.88,-8.45,-3.17,-3.98,-8.45,-3.09,-3.88,50.28
5403843,96.50,-59.50,141.44,0.01,0.02,-0.01,0.06,-0.04,-0.05,43.06,20.50,-2.88,-8.38,-3.14,-3.95,-8.45,-3.09,-3.89,50.26
5403873,96.62,-59.44,141.44,-0.00,0.00,-0.02,0.02,-0.07,-0.07,43.06,20.50,-2.88,-8.42,-3.18,-3.96,-8.44,-3.10,-3.89,50.28
5403904,96.69,-59.44,141.38,0.01,0.02,-0.01,0.00,-0.15,-0.05,43.06,20.50,-2.00,-8.44,-3.26,-3.95,-8.44,-3.10,-3.89,50.39
5403934,96.81,-59.38,141.31,0.07,0.03,-0.02,0.00,-0.28,0.00,43.06,20.50,-2.00,-8.43,-3.40,-3.89,-8.43,-3.12,-3.89,50.35
5403964,97.12,-59.31,141.19,0.04,0.02,-0.02,0.08,-0.28,0.04,43.50,20.88,-2.88,-8.34,-3.42,-3.85,-8.43,-3.13,-3.89,50.28
5403993,97.25,-59.25,141.00,-0.01,-0.01,-0.03,0.16,-0.14,0.13,43.50,20.06,-2.00,-8.26,-3.30,-3.76,-8.42,-3.15,-3.89,50.22
5404024,97.44,-59.19,140.94,-0.08,-0.02,-0.05,0.33,-0.12,0.07,43.50,20.06,-2.00,-8.09,-3.29,-3.82,-8.42,-3.16,-3.89,50.21
5404055,97.31,-59.12,140.88,-0.09,-0.02,-0.06,0.21,-0.09,-0.05,42.25,20.50,-1.06,-8.20,-3.26,-3.95,-8.42,-3.17,-3.90,50.19
5404085,97.19,-59.12,140.88,-0.12,-0.04,-0.06,0.04,-0.08,-0.10,42.25,20.50,-1.06,-8.37,-3.25,-4.00,-8.41,-3.17,-3.90,50.21
5404115,97.19,-59.12,140.88,-0.12,-0.07,-0.05,0.08,0.03,0.00,43.06,19.69,-0.69,-8.33,-3.14,-3.91,-8.41,-3.17,-3.90,50.24
5404144,96.88,-59.12,140.81,-0.10,-0.07,-0.04,0.15,0.02,0.02,42.69,21.19,-1.50,-8.26,-3.14,-3.87,-8.42,-3.17,-3.89,50.33
5404174,96.75,-59.19,140.81,-0.01,-0.03,-0.01,0.13,-0.09,-0.04,42.69,21.19,-1.50,-8.28,-3.27,-3.93,-8.42,-3.17,-3.89,50.29
5404204,96.69,-59.19,140.75,-0.07,-0.02,-0.02,0.09,-0.23,0.01,43.50,21.19,-1.50,-8.32,-3.40,-3.87,-8.42,-3.17,-3.89,50.26
5404234,96.38,-59.12,140.81,-0.24,-0.07,-0.07,0.00,-0.24,0.02,43.50,21.19,-1.50,-8.42,-3.41,-3.87,-8.42,-3.17,-3.89,50.25
5404264,95.88,-59.19,140.88,-0.26,-0.08,-0.09,-0.03,-0.14,0.04,43.06,21.56,-0.19,-8.45,-3.30,-3.85,-8.42,-3.16,-3.89,50.21
5404293,95.38,-59.12,141.00,-0.26,-0.05,-0.09,0.19,0.06,0.01,43.50,21.56,-1.50,-8.22,-3.09,-3.89,-8.41,-3.16,-3.90,50.15
5404324,95.00,-59.06,141.12,-0.12,0.00,-0.04,0.31,0.02,-0.18,43.50,21.56,-1.50,-8.09,-3.13,-4.11,-8.41,-3.15,-3.92,50.17
5404354,94.88,-59.00,141.25,0.00,0.01,0.02,0.18,0.00,-0.27,42.25,21.56,-1.06,-8.22,-3.14,-4.21,-8.40,-3.15,-3.93,50.20
5404384,94.94,-59.00,141.38,0.06,0.03,0.05,0.09,0.00,-0.22,42.25,21.56,-1.06,-8.31,-3.14,-4.17,-8.40,-3.14,-3.94,50.15
5404414,95.12,-58.94,141.44,0.11,0.03,0.05,0.02,-0.05,-0.14,42.69,21.19,-1.06,-8.38,-3.20,-4.09,-8.40,-3.14,-3.95,50.21
5404444,95.38,-59.00,141.44,0.12,0.03,0.06,0.07,-0.04,0.00,43.06,21.19,-0.19,-8.33,-3.19,-3.95,-8.40,-3.14,-3.94,50.17
5404474,95.62,-59.00,141.44,0.11,0.03,0.05,0.04,-0.08,-0.02,43.06,21.19,-0.19,-8.36,-3.23,-3.97,-8.40,-3.14,-3.94,50.18
5404504,95.81,-59.00,141.38,0.11,0.03,0.05,0.13,-0.05,-0.01,42.25,22.38,-2.00,-8.27,-3.20,-3.95,-8.40,-3.14,-3.94,50.15
5404535,96.00,-59.00,141.38,0.07,0.04,0.03,0.22,-0.08,0.00,42.25,22.38,-2.00,-8.18,-3.23,-3.95,-8.40,-3.14,-3.94,50.05
5404564,96.25,-58.94,141.38,0.07,0.04,0.01,0.15,-0.16,-0.09,43.50,21.19,-2.00,-8.24,-3.32,-4.04,-8.40,-3.15,-3.95,50.12
5404594,96.50,-58.88,141.31,0.07,0.05,0.01,0.03,-0.14,-0.05,43.50,21.56,-2.00,-8.35,-3.30,-4.01,-8.39,-3.16,-3.95,50.16
5404625,96.75,-58.81,141.25,0.07,0.03,-0.00,-0.10,-0.10,-0.04,43.50,21.56,-2.00,-8.49,-3.28,-4.00,-8.39,-3.17,-3.96,50.27
5404654,97.00,-58.75,141.19,0.07,0.03,-0.01,-0.05,-0.01,-0.01,43.06,20.88,-1.06,-8.44,-3.20,-3.97,-8.38,-3.18,-3.96,50.28
5404685,97.19,-58.69,141.12,0.00,0.04,-0.03,0.07,-0.09,-0.03,43.06,20.88,-1.06,-8.30,-3.28,-4.00,-8.38,-3.19,-3.96,50.25
5404715,97.25,-58.62,141.19,-0.04,0.05,-0.04,0.11,-0.28,-0.06,42.25,21.56,-1.06,-8.25,-3.48,-4.04,-8.36,-3.20,-3.98,50.25
5404745,97.31,-58.50,141.19,-0.05,0.05,-0.04,0.10,-0.19,0.12,43.50,21.56,-1.06,-8.25,-3.40,-3.87,-8.35,-3.21,-3.99,50.25
5404775,97.25,-58.31,141.25,-0.11,0.05,-0.06,0.07,-0.19,0.25,43.50,21.56,-1.06,-8.26,-3.41,-3.75,-8.34,-3.22,-4.01,50.17
5404804,97.25,-58.19,141.25,-0.10,0.06,-0.06,0.06,-0.25,0.14,43.06,21.19,-1.06,-8.27,-3.47,-3.88,-8.33,-3.22,-4.03,50.20
5404835,97.19,-58.06,141.38,-0.12,0.07,-0.02,0.14,-0.17,0.00,43.06,21.19,-1.06,-8.17,-3.40,-4.06,-8.32,-3.22,-4.05,50.24
5404865,97.00,-57.94,141.69,-0.12,0.06,-0.00,0.09,-0.04,-0.06,43.06,21.56,-1.06,-8.21,-3.26,-4.15,-8.31,-3.21,-4.08,50.21
5404895,96.81,-57.88,141.94,-0.09,0.05,0.00,0.12,0.03,-0.05,42.69,21.56,-0.69,-8.17,-3.17,-4.16,-8.30,-3.20,-4.10,50.24
5404925,96.62,-57.81,142.12,-0.07,0.03,-0.03,-0.30,-0.05,-0.13,42.69,21.56,-0.69,-8.60,-3.25,-4.25,-8.30,-3.20,-4.12,50.25
5404955,96.56,-57.75,142.25,-0.08,0.03,-0.04,-0.45,-0.09,-0.03,43.50,21.56,-1.50,-8.74,-3.29,-4.17,-8.29,-3.20,-4.13,50.30
5404985,96.50,-57.69,142.25,-0.10,0.01,-0.09,0.10,0.09,0.17,43.50,21.56,-1.50,-8.17,-3.11,-3.97,-8.28,-3.20,-4.15,50.29
5405016,96.38,-57.56,142.25,-0.16,-0.01,-0.11,0.60,0.04,0.07,42.69,22.00,-0.19,-7.66,-3.16,-4.08,-8.27,-3.21,-4.16,50.22
5405047,95.94,-57.44,142.38,-0.21,-0.03,-0.09,0.40,-0.14,-0.17,42.25,22.00,-0.19,-7.86,-3.35,-4.35,-8.27,-3.21,-4.17,50.25
5405074,95.56,-57.44,142.44,-0.14,-0.04,-0.03,0.20,-0.19,-0.17,42.25,22.00,-0.19,-8.06,-3.40,-4.35,-8.27,-3.20,-4.17,50.21
5405104,95.44,-57.44,142.50,-0.08,-0.03,-0.01,0.07,-0.08,-0.04,42.25,21.56,0.69,-8.20,-3.28,-4.22,-8.27,-3.20,-4.18,50.18
5405135,95.31,-57.50,142.56,-0.02,-0.01,0.03,0.11,-0.10,-0.03,42.25,21.56,0.69,-8.15,-3.29,-4.22,-8.27,-3.19,-4.18,50.33
5405166,95.25,-57.50,142.62,-0.02,-0.03,0.05,0.18,-0.06,-0.05,42.25,22.69,-0.69,-8.09,-3.25,-4.23,-8.27,-3.18,-4.18,50.36
5405195,95.06,-57.62,142.75,-0.05,-0.03,0.04,-0.13,-0.13,-0.31,42.25,22.38,-1.06,-8.42,-3.31,-4.49,-8.28,-3.17,-4.17,50.32
5405226,94.94,-57.69,142.75,0.02,-0.05,0.03,0.02,-0.01,-0.14,42.25,22.38,-1.06,-8.26,-3.18,-4.31,-8.29,-3.16,-4.16,50.18
5405256,94.94,-57.75,142.69,0.02,-0.07,0.01,0.21,0.04,0.08,42.25,22.38,-0.19,-8.09,-3.11,-4.06,-8.30,-3.16,-4.15,50.11
5405286,94.81,-57.88,142.56,-0.04,-0.07,-0.00,0.24,0.02,0.17,42.25,22.38,-0.19,-8.06,-3.13,-3.95,-8.30,-3.16,-4.13,50.11
5405316,94.69,-57.94,142.56,-0.11,-0.05,-0.03,0.18,0.00,-0.01,43.50,22.38,-1.06,-8.12,-3.15,-4.14,-8.31,-3.15,-4.13,50.18
5405346,94.38,-57.94,142.62,-0.13,-0.04,-0.03,0.17,-0.01,-0.11,42.25,21.56,-0.19,-8.13,-3.16,-4.24,-8.31,-3.15,-4.13,50.17
5405376,94.00,-58.00,142.75,-0.12,-0.05,-0.03,0.06,0.01,-0.18,42.25,21.56,-0.19,-8.25,-3.12,-4.32,-8.31,-3.14,-4.13,50.19
5405406,93.75,-58.00,142.81,-0.08,-0.05,-0.01,0.07,0.07,-0.14,42.69,22.00,1.06,-8.24,-3.06,-4.27,-8.32,-3.13,-4.13,50.22
5405436,93.62,-58.06,142.81,-0.04,-0.04,0.01,0.10,0.05,-0.01,42.69,22.00,1.06,-8.21,-3.07,-4.14,-8.32,-3.13,-4.13,50.27
5405466,93.50,-58.06,142.88,-0.01,-0.02,0.03,-0.08,0.06,0.01,42.69,22.69,-0.19,-8.41,-3.06,-4.11,-8.32,-3.12,-4.12,50.19
5405496,93.44,-58.12,142.88,-0.03,-0.02,0.03,0.00,0.11,0.10,42.25,22.00,-0.69,-8.33,-2.99,-4.01,-8.33,-3.11,-4.12,50.19
5405526,93.19,-58.25,143.00,-0.06,-0.03,0.02,0.16,0.11,0.04,42.25,22.00,-0.69,-8.17,-2.99,-4.07,-8.33,-3.10,-4.12,50.20
5405555,93.00,-58.25,143.06,-0.06,-0.01,0.01,0.07,0.07,-0.13,42.69,22.38,-0.69,-8.27,-3.01,-4.26,-8.34,-3.09,-4.12,50.16
5405586,92.94,-58.25,143.19,0.05,-0.00,0.04,0.12,-0.03,-0.24,42.69,22.38,-0.69,-8.22,-3.11,-4.37,-8.34,-3.08,-4.12,50.15
5405616,93.06,-58.31,143.19,0.13,-0.02,0.08,0.09,-0.10,-0.17,42.69,21.56,-0.19,-8.24,-3.18,-4.29,-8.34,-3.08,-4.12,50.19
5405646,93.25,-58.44,143.12,0.14,-0.04,0.09,0.00,-0.07,0.04,42.25,22.38,-0.19,-8.34,-3.15,-4.05,-8.35,-3.07,-4.10,50.12
5405677,93.31,-58.50,143.06,0.06,-0.04,0.06,0.08,-0.07,0.15,42.25,22.38,-0.19,-8.28,-3.14,-3.93,-8.37,-3.06,-4.08,50.18
5405707,93.31,-58.62,143.06,-0.01,-0.03,0.02,0.08,-0.11,0.15,42.25,21.19,-1.50,-8.28,-3.17,-3.91,-8.37,-3.06,-4.07,50.15
5405737,93.12,-58.69,143.06,-0.08,-0.04,-0.00,0.09,-0.09,0.14,42.25,21.19,-1.50,-8.28,-3.15,-3.93,-8.38,-3.05,-4.07,50.22
5405767,92.88,-58.75,143.12,-0.10,-0.05,-0.02,0.11,0.01,0.03,43.75,22.69,-0.19,-8.27,-3.03,-4.03,-8.38,-3.05,-4.06,50.22
5405797,92.56,-58.81,143.19,-0.13,-0.06,-0.01,0.03,-0.02,-0.03,43.50,21.19,-0.69,-8.35,-3.06,-4.10,-8.39,-3.04,-4.06,50.26
5405827,92.25,-58.88,143.25,-0.09,-0.04,0.01,-0.01,0.01,-0.08,43.50,21.19,-0.69,-8.40,-3.00,-4.15,-8.39,-3.02,-4.06,50.33
5405857,92.06,-58.94,143.38,-0.06,-0.03,0.01,0.08,0.08,0.04,42.69,22.00,-1.50,-8.31,-2.92,-4.01,-8.40,-3.01,-4.06,50.34
5405887,91.94,-58.94,143.38,-0.03,-0.02,0.01,0.11,0.11,0.11,42.69,22.00,-1.50,-8.29,-2.89,-3.94,-8.40,-3.01,-4.05,50.31
5405917,91.81,-59.00,143.44,-0.04,-0.02,0.00,-0.01,0.05,0.04,43.75,22.00,-0.19,-8.42,-2.95,-4.00,-8.40,-3.00,-4.05,50.28
5405947,91.69,-59.00,143.50,-0.04,0.01,0.01,-0.19,0.06,0.07,43.06,21.56,-0.69,-8.60,-2.93,-3.97,-8.40,-3.00,-4.05,50.15
5405977,91.62,-59.00,143.56,-0.02,0.03,-0.00,-0.13,0.12,0.06,43.06,21.56,-0.69,-8.54,-2.86,-4.00,-8.40,-2.99,-4.06,50.17
5406007,91.69,-58.94,143.62,0.06,0.04,0.00,0.12,0.06,0.04,42.25,21.19,-0.19,-8.28,-2.93,-4.02,-8.40,-2.99,-4.07,50.14
5406037,91.94,-58.88,143.56,0.08,0.04,0.01,0.26,-0.08,0.00,42.25,21.19,-0.19,-8.13,-3.08,-4.07,-8.39,-3.00,-4.07,50.14
5406066,92.12,-58.88,143.56,0.03,0.03,0.03,0.13,-0.15,-0.01,42.69,21.56,-0.69,-8.26,-3.16,-4.09,-8.39,-3.00,-4.07,50.15
5406096,92.06,-58.88,143.62,-0.02,-0.00,0.04,0.03,-0.09,0.01,43.06,20.88,-0.19,-8.36,-3.09,-4.06,-8.39,-2.99,-4.07,50.13
5406127,91.88,-58.94,143.75,-0.07,-0.01,0.03,0.12,0.00,0.05,43.06,20.88,-0.19,-8.28,-2.98,-4.02,-8.40,-2.98,-4.08,50.13
5406157,91.62,-59.00,144.00,-0.02,0.01,0.04,0.10,-0.12,-0.05,42.69,21.56,-0.19,-8.30,-3.09,-4.14,-8.40,-2.96,-4.08,50.20
5406187,91.56,-59.00,144.06,0.03,0.02,0.08,-0.04,-0.16,-0.17,42.69,21.56,-0.19,-8.45,-3.11,-4.27,-8.40,-2.95,-4.09,50.23
5406217,91.56,-59.06,144.31,0.05,-0.00,0.11,0.03,-0.06,-0.09,42.69,21.56,-1.06,-8.37,-3.00,-4.18,-8.41,-2.93,-4.09,50.15
5406247,91.50,-59.19,144.38,0.06,-0.03,0.12,0.10,-0.12,-0.01,43.50,21.19,-0.69,-8.32,-3.03,-4.09,-8.42,-2.91,-4.08,50.15
5406277,91.38,-59.31,144.56,0.01,-0.01,0.09,0.23,-0.05,0.11,43.50,21.19,-0.69,-8.20,-2.94,-3.95,-8.43,-2.89,-4.07,50.22
5406307,91.25,-59.38,144.69,-0.06,0.01,0.06,0.24,0.00,0.11,42.69,21.19,-0.19,-8.19,-2.87,-3.95,-8.44,-2.87,-4.07,50.25
5406337,91.00,-59.38,145.00,-0.03,0.03,0.04,0.15,0.05,0.07,42.69,21.19,-0.19,-8.28,-2.80,-4.00,-8.44,-2.85,-4.08,50.38
5406368,91.00,-59.38,145.12,-0.01,0.04,0.03,0.20,0.12,0.02,42.69,20.50,-0.19,-8.23,-2.72,-4.06,-8.44,-2.84,-4.09,50.35
5406398,91.06,-59.31,145.25,0.05,0.06,0.01,0.13,0.08,-0.03,43.06,21.56,0.19,-8.29,-2.76,-4.14,-8.43,-2.84,-4.10,50.31
5406425,91.25,-59.25,145.25,0.09,0.05,0.01,-0.23,-0.02,0.02,43.06,21.56,0.19,-8.66,-2.88,-4.09,-8.43,-2.85,-4.11,50.25
5406454,91.38,-59.19,145.25,0.03,0.05,0.01,-0.42,-0.05,0.07,43.75,20.06,0.19,-8.92,-2.96,-4.10,-8.42,-2.85,-4.12,50.26
5406481,91.38,-59.12,145.38,-0.05,0.04,-0.01,-0.40,0.04,0.15,43.75,20.06,0.19,-8.82,-2.80,-3.98,-8.42,-2.85,-4.13,50.25
5406510,91.12,-59.06,145.50,-0.17,0.01,-0.07,0.29,-0.01,0.16,43.50,20.06,0.19,-8.11,-2.86,-3.98,-8.41,-2.85,-4.15,50.27
5406538,90.94,-59.00,145.56,-0.14,0.03,-0.10,0.47,-0.06,0.11,43.50,20.06,0.19,-7.92,-2.91,-4.05,-8.40,-2.85,-4.16,50.33
5406567,90.94,-58.88,145.56,-0.05,0.06,-0.07,0.40,-0.17,-0.06,43.75,21.19,-1.06,-7.98,-3.04,-4.25,-8.39,-2.86,-4.18,50.22
5406596,91.00,-58.69,145.56,-0.03,0.06,-0.03,0.00,-0.17,-0.20,43.50,21.19,-0.69,-8.37,-3.04,-4.40,-8.38,-2.87,-4.20,50.24
5406626,90.94,-58.69,145.69,-0.04,0.02,0.01,-0.07,-0.05,-0.09,43.50,21.19,-0.69,-8.45,-2.91,-4.30,-8.37,-2.86,-4.21,50.24
5406658,90.75,-58.69,145.81,-0.06,-0.02,0.01,0.09,-0.02,0.09,43.50,21.19,1.06,-8.25,-2.91,-4.11,-8.37,-2.85,-4.21,50.20
5406687,90.69,-58.69,145.81,-0.03,-0.04,0.02,0.16,-0.10,0.15,43.50,21.19,1.06,-8.21,-2.96,-4.06,-8.38,-2.85,-4.21,50.22
5406716,90.50,-58.75,145.88,-0.08,-0.03,0.02,0.11,-0.14,0.00,42.25,21.19,-0.69,-8.27,-2.99,-4.20,-8.38,-2.84,-4.20,50.23
5406745,90.31,-58.81,145.94,-0.09,-0.02,0.01,0.08,-0.08,0.01,43.50,21.56,-0.19,-8.35,-2.87,-4.18,-8.39,-2.83,-4.21,50.22
5406776,90.00,-58.81,146.12,-0.11,-0.03,-0.01,0.04,-0.02,-0.01,43.50,21.56,-0.19,-8.36,-2.82,-4.21,-8.39,-2.82,-4.21,50.21
5406804,89.75,-58.81,146.19,-0.11,-0.03,-0.03,-0.12,-0.01,-0.05,43.50,21.19,-0.19,-8.51,-2.83,-4.26,-8.39,-2.81,-4.21,50.22
5406829,89.50,-58.81,146.31,-0.11,-0.02,-0.03,-0.06,0.06,-0.03,43.50,21.19,-0.19,-8.44,-2.70,-4.23,-8.39,-2.81,-4.22,50.24
5406858,89.31,-58.81,146.31,-0.09,0.01,-0.04,0.05,0.11,0.00,43.50,20.88,0.19,-8.33,-2.69,-4.23,-8.39,-2.80,-4.22,50.22
5406887,89.19,-58.75,146.38,-0.06,0.02,-0.05,0.07,0.10,0.01,43.50,20.88,0.19,-8.31,-2.70,-4.22,-8.38,-2.81,-4.23,50.25
5406917,89.12,-58.69,146.44,-0.06,0.04,-0.05,0.19,0.18,0.04,43.50,21.19,-0.19,-8.18,-2.62,-4.19,-8.37,-2.81,-4.24,50.15
5406945,89.12,-58.62,146.50,-0.05,0.05,-0.05,0.24,0.18,0.09,43.06,20.88,0.69,-8.13,-2.62,-4.18,-8.37,-2.81,-4.26,50.04
5406976,89.19,-58.50,146.50,0.01,0.05,-0.02,0.18,0.11,-0.06,43.06,20.88,0.69,-8.17,-2.70,-4.34,-8.36,-2.82,-4.27,50.03
5407005,89.25,-58.44,146.56,0.02,0.05,-0.01,0.07,0.05,-0.10,44.19,20.50,1.06,-8.41,-2.85,-4.40,-8.35,-2.82,-4.28,50.04
5407036,89.44,-58.38,146.56,0.06,0.05,0.02,-0.09,-0.03,-0.07,44.19,20.50,1.06,-8.37,-2.86,-4.34,-8.35,-2.83,-4.29,50.14
5407067,89.56,-58.31,146.56,0.06,0.02,0.03,0.13,-0.01,0.03,43.50,21.56,1.06,-8.21,-2.84,-4.25,-8.34,-2.83,-4.29,50.21
5407095,89.69,-58.31,146.50,0.05,0.01,0.01,0.14,-0.08,-0.03,42.69,21.56,1.06,-8.22,-2.98,-4.34,-8.34,-2.83,-4.29,50.23
5407126,89.88,-58.31,146.44,0.08,-0.01,0.02,0.12,-0.16,0.03,42.69,21.56,1.06,-8.22,-3.00,-4.25,-8.35,-2.84,-4.28,50.21
5407155,90.00,-58.38,146.31,0.03,-0.03,0.03,0.12,-0.10,0.10,43.06,21.19,0.19,-8.25,-2.93,-4.12,-8.35,-2.84,-4.27,50.33
5407186,89.88,-58.44,146.25,-0.03,-0.06,0.00,0.14,-0.07,0.13,43.06,21.19,0.19,-8.20,-2.92,-4.18,-8.36,-2.84,-4.26,50.30
5407216,89.75,-58.56,146.25,-0.06,-0.07,-0.01,0.07,-0.06,-0.03,43.75,22.00,0.19,-8.29,-2.89,-4.28,-8.37,-2.83,-4.24,50.24
5407245,89.50,-58.62,146.25,-0.06,-0.06,-0.00,0.01,0.02,-0.04,43.75,22.00,0.19,-8.33,-2.79,-4.28,-8.37,-2.82,-4.23,50.36
5407276,89.31,-58.69,146.25,-0.05,-0.05,-0.00,0.04,0.08,-0.02,43.50,21.56,1.06,-8.39,-2.71,-4.21,-8.38,-2.82,-4.22,50.26
5407304,89.19,-58.81,146.19,-0.02,-0.04,-0.01,-0.05,0.08,0.07,43.06,21.19,1.06,-8.44,-2.73,-4.15,-8.39,-2.82,-4.21,50.21
5407330,89.19,-58.81,146.12,-0.02,-0.04,-0.03,-0.01,0.00,0.04,43.06,21.19,1.06,-8.38,-2.83,-4.15,-8.39,-2.82,-4.20,50.31
5407358,89.19,-58.88,146.00,-0.01,-0.03,-0.03,0.02,-0.01,0.04,43.06,20.88,-0.19,-8.36,-2.84,-4.15,-8.39,-2.83,-4.20,50.35
5407388,89.12,-58.88,145.94,-0.03,-0.03,-0.03,0.09,0.00,0.07,43.06,20.88,-0.19,-8.30,-2.84,-4.12,-8.39,-2.83,-4.19,50.17
5407417,89.06,-58.88,145.94,-0.05,-0.03,-0.03,0.17,0.10,0.07,43.50,21.56,-0.69,-8.22,-2.73,-4.12,-8.39,-2.83,-4.19,50.25
5407446,88.94,-58.88,145.88,-0.09,-0.03,-0.04,0.35,0.03,0.06,43.50,21.56,0.19,-8.09,-2.72,-4.14,-8.39,-2.83,-4.19,50.26
5407477,88.81,-58.88,145.94,-0.02,0.01,-0.01,0.17,0.02,-0.08,43.50,21.56,0.19,-8.22,-2.80,-4.28,-8.39,-2.83,-4.19,50.25
5407505,88.81,-58.88,145.94,0.03,-0.00,0.04,0.18,0.00,-0.07,43.06,21.56,-0.19,-8.21,-2.88,-4.23,-8.39,-2.82,-4.19,50.27
5407537,88.81,-58.94,146.00,0.04,-0.03,0.07,0.07,-0.04,0.02,43.06,21.56,-0.19,-8.44,-2.87,-4.17,-8.40,-2.81,-4.18,50.26
5407567,88.75,-59.06,146.06,0.02,-0.05,0.08,-0.29,-0.08,-0.04,43.50,20.88,0.19,-8.71,-2.88,-4.21,-8.42,-2.80,-4.17,50.32
5407595,88.50,-59.25,146.19,-0.05,-0.05,0.06,-0.21,-0.12,-0.04,43.50,20.88,0.19,-8.60,-2.90,-4.15,-8.43,-2.78,-4.16,50.29
5407626,88.19,-59.31,146.31,-0.08,-0.05,0.03,-0.02,-0.01,0.08,43.06,21.19,1.06,-8.43,-2.76,-4.03,-8.44,-2.76,-4.15,50.20
5407655,87.88,-59.44,146.38,-0.12,-0.05,-0.01,0.10,0.03,0.17,42.69,21.19,0.69,-8.28,-2.66,-3.96,-8.44,-2.75,-4.15,50.16
5407686,87.56,-59.44,146.50,-0.17,-0.05,-0.05,0.19,0.13,0.19,42.69,21.19,0.69,-8.24,-2.58,-4.02,-8.44,-2.74,-4.15,50.17
5407716,87.12,-59.50,146.56,-0.17,-0.03,-0.06,0.13,0.18,0.00,44.19,21.19,-0.19,-8.32,-2.54,-4.22,-8.44,-2.73,-4.15,50.20
5407745,86.88,-59.44,146.69,-0.08,-0.00,-0.03,0.06,0.15,-0.19,44.19,21.19,-0.19,-8.37,-2.57,-4.36,-8.44,-2.73,-4.16,50.21
5407776,86.88,-59.38,146.75,0.03,0.02,0.00,0.05,0.04,-0.26,43.50,21.19,-0.69,-8.42,-2.77,-4.36,-8.44,-2.73,-4.17,50.20
5407804,87.12,-59.38,146.69,0.14,0.01,0.05,-0.02,-0.09,-0.05,43.50,20.88,1.06,-8.46,-2.82,-4.22,-8.44,-2.73,-4.17,50.08
5407831,87.38,-59.44,146.62,0.11,-0.01,0.05,0.07,-0.12,0.18,43.50,20.88,1.06,-8.35,-2.87,-3.90,-8.44,-2.73,-4.15,50.15
5407862,87.44,-59.50,146.56,0.03,-0.01,0.02,0.08,-0.13,0.35,43.50,21.56,0.19,-8.36,-2.87,-3.79,-8.45,-2.73,-4.15,50.15
5407890,87.31,-59.50,146.56,-0.10,-0.02,-0.03,0.05,-0.04,0.20,43.50,21.56,0.19,-8.40,-2.78,-3.94,-8.45,-2.73,-4.15,50.17
5407918,87.12,-59.50,146.62,-0.16,-0.03,-0.04,0.10,0.01,0.03,43.06,21.56,-0.69,-8.35,-2.71,-4.12,-8.45,-2.72,-4.15,50.25
5407947,86.75,-59.50,146.75,-0.17,-0.02,-0.04,0.09,0.05,-0.11,43.06,20.50,-0.69,-8.36,-2.66,-4.27,-8.45,-2.71,-4.16,50.20
5407977,86.50,-59.50,146.94,-0.09,-0.01,-0.01,0.03,-0.02,-0.25,43.06,20.50,-0.69,-8.41,-2.73,-4.42,-8.45,-2.70,-4.16,50.15
5408008,86.44,-59.56,146.94,-0.01,-0.02,0.02,-0.09,0.09,-0.08,42.69,20.88,0.69,-8.55,-2.60,-4.24,-8.45,-2.70,-4.16,50.17
5408039,86.38,-59.62,146.94,0.02,-0.04,0.00,0.09,0.09,0.15,42.69,20.88,0.69,-8.36,-2.60,-3.99,-8.46,-2.70,-4.15,50.21
5408069,86.38,-59.62,146.88,0.01,-0.02,-0.00,0.15,0.08,0.22,43.75,20.88,-0.69,-8.31,-2.61,-3.91,-8.46,-2.70,-4.14,50.17
5408099,86.38,-59.69,146.88,-0.01,0.01,0.01,0.15,0.11,0.18,44.56,20.50,0.19,-8.31,-2.58,-3.95,-8.46,-2.70,-4.14,50.13
5408128,86.31,-59.69,146.94,0.00,0.03,0.01,0.06,0.10,0.00,44.56,20.50,0.19,-8.40,-2.59,-4.15,-8.46,-2.69,-4.15,50.13
5408157,86.38,-59.62,147.00,0.02,0.02,0.02,-0.01,0.05,-0.10,43.75,21.19,-1.50,-8.47,-2.63,-4.26,-8.46,-2.69,-4.15,50.05
5408188,86.44,-59.62,147.00,0.03,0.02,0.02,0.00,0.01,-0.07,43.75,21.19,-1.50,-8.46,-2.67,-4.23,-8.46,-2.69,-4.15,50.03
5408218,86.50,-59.62,147.06,0.07,0.02,0.04,0.02,0.00,0.00,43.50,21.19,-1.06,-8.43,-2.68,-4.15,-8.46,-2.69,-4.15,50.11
5408247,86.69,-59.62,147.06,0.09,0.03,0.04,0.00,-0.04,0.10,43.75,21.06,0.19,-8.45,-2.74,-4.01,-8.46,-2.69,-4.15,50.16
5408278,86.88,-59.62,147.00,0.08,0.03,0.03,0.05,-0.15,0.16,43.75,21.06,0.19,-8.40,-2.84,-3.99,-8.46,-2.69,-4.15,50.09
5408306,87.00,-59.62,147.00,0.03,0.02,0.02,0.12,-0.15,0.11,43.50,21.19,-0.19,-8.33,-2.85,-4.04,-8.46,-2.69,-4.15,50.18
5408332,87.06,-59.56,147.00,-0.00,0.03,0.01,0.06,-0.11,0.03,43.50,21.19,-0.19,-8.46,-2.79,-4.13,-8.45,-2.69,-4.16,50.26
5408360,87.06,-59.56,147.12,-0.02,0.03,0.01,-0.01,-0.06,-0.04,43.50,21.06,-1.50,-8.46,-2.76,-4.21,-8.45,-2.69,-4.17,50.19
5408389,87.00,-59.50,147.19,-0.02,0.02,0.01,-0.01,-0.09,-0.04,43.50,21.06,-1.50,-8.46,-2.78,-4.22,-8.45,-2.69,-4.17,50.16
5408418,87.00,-59.50,147.19,-0.03,0.00,0.00,0.08,-0.06,0.00,43.06,20.06,0.69,-8.36,-2.75,-4.18,-8.45,-2.69,-4.18,50.11
5408447,86.88,-59.50,147.25,-0.04,0.01,-0.00,0.09,-0.07,0.03,43.06,20.06,-1.06,-8.35,-2.76,-4.15,-8.45,-2.68,-4.18,50.18
5408478,86.88,-59.44,147.31,-0.04,0.03,-0.02,0.05,0.00,0.05,43.06,20.06,-1.06,-8.38,-2.67,-4.14,-8.44,-2.68,-4.19,50.15
5408507,86.88,-59.38,147.38,-0.03,0.04,-0.03,0.08,0.05,0.10,43.50,20.50,0.69,-8.33,-2.61,-4.10,-8.43,-2.69,-4.20,50.16
5408538,86.88,-59.31,147.44,-0.03,0.04,-0.02,0.13,0.04,0.08,43.50,20.50,0.69,-8.29,-2.65,-4.14,-8.43,-2.69,-4.22,50.18
5408568,86.88,-59.19,147.50,0.01,0.04,0.01,0.12,0.09,0.10,43.06,20.88,-0.69,-8.30,-2.60,-4.12,-8.42,-2.69,-4.23,50.16
5408597,86.88,-59.19,147.56,-0.02,0.03,0.01,0.13,0.09,0.12,42.69,20.88,1.50,-8.30,-2.59,-4.10,-8.42,-2.68,-4.23,50.20
5408628,86.75,-59.19,147.69,-0.07,0.03,0.00,0.08,0.14,0.00,42.69,20.88,1.50,-8.33,-2.53,-4.24,-8.42,-2.67,-4.25,50.24
5408657,86.56,-59.12,147.88,-0.06,0.04,-0.00,0.06,0.13,-0.06,43.06,20.88,0.19,-8.38,-2.52,-4.34,-8.41,-2.66,-4.26,50.23
5408688,86.56,-59.06,148.00,0.01,0.04,0.00,0.00,0.04,-0.16,43.06,20.88,0.19,-8.44,-2.53,-4.42,-8.41,-2.66,-4.27,50.25
5408718,86.75,-59.00,148.00,0.07,0.03,0.01,-0.06,0.12,-0.03,42.69,20.88,1.06,-8.46,-2.55,-4.31,-8.40,-2.67,-4.27,50.21
5408747,86.94,-59.00,147.88,0.08,0.03,0.01,-0.02,0.06,0.01,42.69,21.19,0.19,-8.43,-2.61,-4.26,-8.40,-2.68,-4.28,50.19
5408778,87.19,-58.88,147.81,0.08,0.05,0.00,0.09,-0.07,-0.10,42.69,21.19,0.19,-8.30,-2.76,-4.39,-8.39,-2.69,-4.28,50.15
5408806,87.50,-58.81,147.81,0.13,0.07,0.03,0.11,-0.09,-0.11,43.06,21.56,0.19,-8.27,-2.79,-4.40,-8.38,-2.70,-4.29,50.20
5408832,87.88,-58.75,147.75,0.14,0.08,0.05,0.10,-0.08,0.01,43.06,21.56,0.19,-8.30,-2.79,-4.16,-8.38,-2.71,-4.30,50.25
5408861,88.06,-58.69,147.88,0.06,0.07,0.05,-0.02,-0.06,0.21,43.75,20.50,0.69,-8.40,-2.77,-4.10,-8.38,-2.70,-4.31,50.23
5408890,88.00,-58.62,148.06,-0.04,0.09,0.06,-0.02,0.04,0.21,43.75,20.50,0.69,-8.40,-2.65,-4.11,-8.37,-2.69,-4.33,50.17
5408919,87.94,-58.56,148.38,-0.05,0.18,0.06,-0.01,0.13,-0.08,42.69,20.88,1.06,-8.37,-2.53,-4.45,-8.36,-2.67,-4.37,50.19
5408949,87.88,-58.31,148.88,-0.01,0.20,0.07,-0.03,0.11,-0.22,43.06,19.69,2.00,-8.37,-2.53,-4.64,-8.34,-2.65,-4.41,50.25
5408979,87.94,-58.12,149.25,0.04,0.15,0.08,-0.05,0.12,-0.22,43.06,19.69,2.00,-8.38,-2.50,-4.68,-8.32,-2.63,-4.45,50.20
5409008,88.00,-58.00,149.56,0.03,0.12,0.07,0.04,0.17,0.00,44.19,20.50,1.06,-8.26,-2.44,-4.48,-8.31,-2.61,-4.48,50.18
5409039,88.06,-57.94,149.88,0.04,0.12,0.07,0.10,0.19,0.08,44.19,20.50,1.06,-8.20,-2.41,-4.42,-8.30,-2.60,-4.51,50.22
5409070,88.19,-57.75,150.12,0.08,0.16,0.09,0.17,0.15,0.01,43.06,20.50,1.50,-8.12,-2.44,-4.52,-8.29,-2.59,-4.54,50.23
5409099,88.44,-57.62,150.44,0.12,0.19,0.12,0.27,0.03,-0.04,44.19,20.88,2.00,-7.99,-2.54,-4.62,-8.27,-2.58,-4.57,50.21
5409129,88.75,-57.44,150.75,0.22,0.20,0.20,0.20,0.09,-0.02,44.19,20.88,2.00,-8.05,-2.46,-4.63,-8.26,-2.56,-4.60,50.17
5409158,89.19,-57.31,151.06,0.22,0.19,0.19,0.17,0.08,-0.06,43.75,20.50,2.00,-8.09,-2.47,-4.72,-8.25,-2.55,-4.64,50.10
5409189,89.62,-57.19,151.31,0.21,0.16,0.17,0.21,-0.02,-0.11,43.75,20.50,2.00,-8.03,-2.55,-4.77,-8.24,-2.53,-4.66,50.09
5409219,90.00,-57.12,151.50,0.21,0.11,0.16,0.27,-0.04,-0.02,43.50,19.69,3.25,-7.96,-2.57,-4.69,-8.24,-2.52,-4.67,50.10
5409248,90.38,-57.12,151.62,0.20,0.08,0.14,0.30,-0.06,0.04,44.56,18.88,2.75,-7.95,-2.62,-4.62,-8.24,-2.52,-4.68,50.07
5409279,90.69,-57.12,151.69,0.17,0.06,0.12,0.20,-0.12,0.12,44.56,18.88,2.75,-8.03,-2.63,-4.56,-8.24,-2.51,-4.68,50.10
5409307,90.94,-57.19,151.75,0.13,0.03,0.09,0.20,-0.06,0.14,44.56,19.25,2.00,-8.04,-2.57,-4.53,-8.24,-2.50,-4.68,50.15
5409333,91.06,-57.19,151.81,0.09,0.00,0.06,0.10,-0.09,0.03,44.56,19.25,2.00,-8.14,-2.59,-4.63,-8.24,-2.50,-4.67,50.21
5409363,91.19,-57.25,151.75,0.07,-0.02,0.03,0.03,-0.16,0.00,44.19,18.19,2.38,-8.22,-2.67,-4.66,-8.25,-2.50,-4.66,50.24
5409392,91.25,-57.31,151.69,0.01,-0.05,0.01,-0.06,-0.01,-0.01,44.19,18.19,2.38,-8.32,-2.52,-4.66,-8.25,-2.50,-4.65,50.19
5409421,91.19,-57.44,151.62,0.01,-0.08,0.02,0.01,0.04,0.00,44.19,18.56,2.38,-8.24,-2.46,-4.63,-8.26,-2.50,-4.63,50.23
5409450,91.19,-57.50,151.56,0.06,-0.05,0.03,0.11,0.00,0.04,45.00,18.56,4.19,-8.16,-2.51,-4.57,-8.27,-2.50,-4.62,50.32
5409480,91.31,-57.62,151.44,0.11,-0.03,0.04,0.25,-0.09,0.04,45.00,18.56,4.19,-8.02,-2.60,-4.55,-8.28,-2.50,-4.60,50.18
5409509,91.56,-57.69,151.25,0.14,-0.02,0.04,0.25,-0.12,0.10,44.19,18.50,3.25,-8.03,-2.64,-4.48,-8.29,-2.51,-4.59,50.23
5409540,91.81,-57.75,151.06,0.06,-0.06,0.00,0.12,-0.10,0.18,44.19,18.50,3.25,-8.17,-2.63,-4.38,-8.30,-2.52,-4.56,50.23
5409569,91.81,-57.88,150.94,-0.01,-0.08,-0.01,0.14,-0.13,0.10,44.56,18.06,1.50,-8.16,-2.66,-4.44,-8.31,-2.52,-4.54,50.27
5409599,91.62,-58.00,150.88,-0.05,-0.10,0.00,-0.07,-0.07,-0.05,43.75,18.06,2.00,-8.39,-2.59,-4.58,-8.32,-2.52,-4.53,50.19
5409629,91.38,-58.12,150.88,-0.08,-0.09,0.01,-0.10,0.05,-0.07,43.75,18.06,2.00,-8.44,-2.45,-4.59,-8.33,-2.50,-4.51,50.13
5409659,91.06,-58.31,150.88,-0.08,-0.10,0.01,-0.04,0.05,-0.07,44.19,18.50,2.00,-8.32,-2.42,-4.51,-8.34,-2.49,-4.49,50.04
5409689,90.81,-58.44,150.88,-0.04,-0.10,-0.01,0.18,0.07,0.05,44.19,18.50,2.00,-8.17,-2.41,-4.42,-8.36,-2.49,-4.47,50.01
5409720,90.75,-58.50,150.75,-0.00,-0.08,-0.03,0.21,-0.02,0.00,43.75,18.50,-0.69,-8.15,-2.53,-4.44,-8.36,-2.50,-4.45,50.11
5409749,90.75,-58.56,150.56,0.01,-0.05,-0.02,0.07,-0.07,0.00,44.25,18.50,2.00,-8.44,-2.56,-4.41,-8.37,-2.50,-4.44,50.10
5409780,90.75,-58.69,150.50,0.01,-0.05,0.01,-0.05,-0.01,0.06,44.25,18.50,2.00,-8.43,-2.52,-4.36,-8.38,-2.50,-4.43,50.09
5409808,90.69,-58.75,150.44,-0.03,-0.05,0.01,0.02,0.00,0.09,44.19,18.06,1.50,-8.32,-2.48,-4.35,-8.38,-2.50,-4.42,50.07
5409839,90.50,-58.81,150.50,-0.03,-0.02,0.02,0.14,0.00,0.00,44.19,18.06,1.50,-8.24,-2.49,-4.41,-8.39,-2.49,-4.42,50.10
5409870,90.44,-58.81,150.62,-0.01,0.01,0.04,0.13,0.00,-0.06,45.00,18.88,1.06,-8.25,-2.48,-4.48,-8.39,-2.48,-4.42,50.23
5409899,90.38,-58.81,150.69,0.00,0.02,0.04,0.15,-0.03,-0.03,44.19,18.88,1.06,-8.23,-2.51,-4.45,-8.39,-2.47,-4.42,50.22
5409929,90.38,-58.88,150.81,0.04,0.01,0.05,0.19,0.01,0.00,44.19,18.88,1.06,-8.20,-2.44,-4.41,-8.39,-2.46,-4.42,50.26
5409959,90.50,-58.88,150.81,0.07,0.03,0.05,0.08,0.02,-0.04,44.56,18.06,0.69,-8.34,-2.47,-4.51,-8.39,-2.46,-4.42,50.19
5409990,90.56,-58.88,150.88,0.07,0.01,0.04,-0.02,-0.08,-0.16,44.56,18.06,0.69,-8.42,-2.54,-4.58,-8.39,-2.46,-4.42,50.18
5410020,90.69,-58.94,150.81,0.04,-0.04,0.03,-0.03,-0.03,0.00,44.19,18.50,1.06,-8.44,-2.50,-4.40,-8.40,-2.46,-4.41,50.17
5410050,90.69,-59.00,150.75,-0.01,-0.06,-0.01,0.06,0.00,0.15,44.19,18.50,0.19,-8.23,-2.42,-4.11,-8.41,-2.46,-4.40,50.19
5410081,90.56,-59.06,150.62,-0.12,-0.07,-0.06,0.21,0.04,0.21,44.19,18.50,0.19,-8.20,-2.42,-4.17,-8.41,-2.46,-4.38,50.21
5410110,90.25,-59.12,150.62,-0.14,-0.04,-0.06,0.17,0.01,0.00,44.19,18.06,2.00,-8.23,-2.44,-4.39,-8.41,-2.46,-4.38,50.19
5410140,90.00,-59.12,150.69,-0.08,-0.04,-0.01,0.19,0.08,-0.16,44.19,18.06,2.00,-8.22,-2.36,-4.55,-8.42,-2.45,-4.38,50.24
5410171,89.81,-59.12,150.75,-0.00,-0.05,0.02,0.20,0.08,-0.18,44.56,18.50,1.50,-8.21,-2.36,-4.56,-8.42,-2.44,-4.38,50.29
5410199,89.81,-59.19,150.75,0.03,-0.05,0.02,0.17,0.06,-0.09,44.56,18.50,1.50,-8.28,-2.39,-4.37,-8.42,-2.44,-4.37,50.22
5410230,89.88,-59.31,150.62,0.03,-0.05,0.01,0.11,0.00,0.04,44.56,18.50,1.50,-8.32,-2.44,-4.31,-8.43,-2.45,-4.35,50.16
5410260,89.88,-59.31,150.56,0.03,-0.03,0.00,0.29,-0.08,0.15,44.56,18.06,2.00,-8.16,-2.48,-4.16,-8.43,-2.45,-4.34,50.10
5410290,90.00,-59.38,150.50,0.05,0.02,0.02,0.04,0.00,0.06,44.56,18.06,2.00,-8.39,-2.46,-4.28,-8.43,-2.45,-4.34,50.11
5410320,90.06,-59.31,150.50,0.04,0.01,0.03,-0.13,0.11,0.06,43.75,18.50,0.19,-8.57,-2.34,-4.28,-8.43,-2.45,-4.34,50.14
5410350,90.12,-59.38,150.50,-0.02,-0.01,0.01,-0.06,0.09,-0.07,45.25,18.50,0.69,-8.50,-2.35,-4.42,-8.44,-2.45,-4.34,50.10
5410381,90.06,-59.38,150.56,0.02,0.00,-0.01,0.04,0.00,-0.14,45.25,18.50,0.69,-8.39,-2.45,-4.49,-8.44,-2.45,-4.34,50.22
5410410,90.12,-59.38,150.50,0.05,-0.01,-0.00,0.09,-0.06,-0.10,44.56,18.88,2.00,-8.34,-2.52,-4.45,-8.44,-2.45,-4.34,50.22
5410440,90.25,-59.38,150.38,0.04,-0.02,-0.00,0.13,-0.04,0.02,44.56,18.88,2.00,-8.30,-2.51,-4.31,-8.44,-2.46,-4.33,50.28
5410471,90.44,-59.38,150.25,0.08,0.01,0.02,0.13,-0.02,0.06,45.00,18.50,1.50,-8.31,-2.50,-4.26,-8.44,-2.47,-4.33,50.23
5410500,90.62,-59.38,150.19,0.10,0.03,0.03,0.15,-0.06,0.04,44.56,18.50,1.50,-8.28,-2.55,-4.29,-8.44,-2.48,-4.33,50.28
5410531,90.94,-59.31,150.12,0.15,0.06,0.04,0.19,-0.11,0.02,44.56,18.50,1.50,-8.24,-2.60,-4.31,-8.43,-2.48,-4.33,50.35
5410560,91.31,-59.31,150.06,0.16,0.06,0.05,0.09,-0.16,-0.01,44.56,18.06,1.06,-8.33,-2.66,-4.34,-8.43,-2.49,-4.33,50.38
5410591,91.62,-59.25,150.00,0.13,0.03,0.06,-0.02,-0.14,0.04,44.56,18.06,1.06,-8.45,-2.65,-4.28,-8.43,-2.50,-4.33,50.43
5410621,91.81,-59.31,149.94,0.01,-0.01,0.02,0.07,-0.13,0.11,44.56,18.50,0.19,-8.36,-2.64,-4.21,-8.43,-2.50,-4.33,50.36
5410650,91.75,-59.31,149.94,-0.04,-0.02,-0.00,0.15,-0.13,0.12,45.00,18.06,0.19,-8.28,-2.63,-4.20,-8.43,-2.50,-4.32,50.28
5410681,91.56,-59.38,150.00,-0.11,-0.04,-0.02,0.06,-0.12,0.01,45.00,18.06,0.19,-8.37,-2.61,-4.30,-8.44,-2.49,-4.32,50.34
5410709,91.25,-59.38,150.06,-0.15,-0.03,-0.02,0.04,-0.13,-0.05,44.56,17.50,1.06,-8.41,-2.56,-4.38,-8.44,-2.48,-4.32,50.33
5410741,91.00,-59.38,150.19,-0.10,-0.01,-0.03,0.04,0.00,0.01,44.56,17.50,1.06,-8.39,-2.47,-4.31,-8.44,-2.48,-4.33,50.34
5410771,90.94,-59.38,150.19,-0.01,-0.00,-0.02,0.15,-0.04,-0.02,45.00,18.19,0.69,-8.28,-2.53,-4.36,-8.43,-2.48,-4.33,50.40
5410801,90.94,-59.38,150.12,0.00,0.01,-0.01,0.18,0.01,0.05,45.00,18.56,0.69,-8.25,-2.47,-4.27,-8.43,-2.48,-4.33,50.53
5410831,90.88,-59.31,150.12,-0.06,-0.00,-0.02,0.19,0.05,0.07,45.00,18.56,0.69,-8.24,-2.43,-4.26,-8.43,-2.48,-4.33,50.49
5410861,90.75,-59.31,150.19,-0.07,0.00,-0.02,0.14,0.06,0.06,43.75,17.50,2.00,-8.29,-2.41,-4.28,-8.43,-2.48,-4.34,50.39
5410891,90.69,-59.31,150.25,-0.03,0.01,-0.02,0.15,0.08,0.07,43.75,17.50,2.00,-8.27,-2.39,-4.26,-8.43,-2.48,-4.34,50.24
5410921,90.69,-59.25,150.25,0.01,0.02,-0.01,0.12,0.03,-0.01,45.25,18.19,0.69,-8.30,-2.44,-4.36,-8.43,-2.48,-4.34,50.33
5410950,90.75,-59.25,150.19,0.04,0.03,0.00,-0.03,-0.02,-0.07,45.00,18.56,0.19,-8.45,-2.51,-4.42,-8.42,-2.48,-4.35,50.18
5410981,90.94,-59.19,150.12,0.06,0.01,0.01,-0.07,-0.04,-0.03,45.00,18.56,0.19,-8.49,-2.54,-4.38,-8.42,-2.49,-4.35,50.16
5411011,91.06,-59.19,150.06,0.03,0.00,-0.01,0.01,-0.07,0.02,44.56,18.19,1.50,-8.41,-2.57,-4.32,-8.42,-2.50,-4.34,50.16
5411041,91.19,-59.19,149.94,0.04,0.00,-0.03,0.09,-0.05,0.06,44.56,18.19,1.50,-8.32,-2.57,-4.28,-8.42,-2.51,-4.34,50.18
5411072,91.31,-59.12,149.81,0.03,0.01,-0.03,0.14,-0.05,0.04,45.00,18.56,2.00,-8.27,-2.58,-4.29,-8.41,-2.52,-4.34,50.25
5411102,91.50,-59.06,149.75,0.05,0.02,-0.00,0.16,-0.12,0.01,44.56,17.75,1.50,-8.25,-2.66,-4.33,-8.41,-2.53,-4.34,50.29
5411132,91.62,-59.06,149.69,0.07,0.02,0.03,0.06,-0.02,0.00,44.56,17.75,1.50,-8.34,-2.56,-4.34,-8.41,-2.54,-4.34,50.27
5411161,91.75,-59.06,149.69,0.02,0.02,0.02,0.00,0.02,-0.04,45.69,19.38,-1.06,-8.41,-2.51,-4.39,-8.41,-2.53,-4.35,50.24
5411192,91.75,-59.06,149.75,0.01,0.01,0.01,0.01,-0.06,-0.09,45.69,19.38,-1.06,-8.39,-2.59,-4.44,-8.41,-2.53,-4.35,50.17
5411221,91.81,-59.00,149.75,0.02,0.01,0.01,0.00,-0.02,0.00,45.00,18.56,1.50,-8.40,-2.56,-4.35,-8.41,-2.54,-4.35,50.18
5411251,91.88,-59.00,149.69,0.01,0.02,0.00,0.13,0.00,0.07,45.00,18.50,1.06,-8.26,-2.55,-4.29,-8.40,-2.54,-4.36,50.19
5411282,91.94,-58.94,149.75,0.00,0.03,-0.02,0.09,0.00,0.07,45.00,18.50,1.06,-8.31,-2.55,-4.29,-8.40,-2.54,-4.36,50.17
5411311,91.94,-58.88,149.75,-0.00,0.03,-0.02,0.10,0.02,0.06,44.56,18.50,0.19,-8.29,-2.52,-4.31,-8.39,-2.55,-4.37,50.18
5411341,92.06,-58.81,149.75,0.00,0.03,-0.03,0.10,0.01,-0.01,44.56,18.50,0.19,-8.28,-2.54,-4.40,-8.39,-2.55,-4.38,50.30
5411372,92.12,-58.75,149.69,0.03,0.05,-0.02,-0.03,-0.03,-0.09,43.75,18.56,0.69,-8.42,-2.59,-4.48,-8.38,-2.56,-4.39,50.23
5411401,92.31,-58.62,149.69,0.04,0.05,-0.01,-0.04,-0.13,-0.10,43.50,19.00,1.06,-8.42,-2.70,-4.50,-8.37,-2.57,-4.40,50.31
5411432,92.50,-58.56,149.62,0.06,0.03,-0.00,0.11,-0.13,0.01,43.50,19.00,1.06,-8.25,-2.71,-4.39,-8.37,-2.58,-4.40,50.35
5411462,92.62,-58.56,149.56,0.02,0.00,-0.02,0.20,-0.11,0.14,44.56,19.00,2.00,-8.16,-2.70,-4.26,-8.37,-2.58,-4.40,50.29
5411492,92.62,-58.56,149.50,-0.07,-0.00,-0.04,0.10,-0.10,0.11,44.56,19.00,2.00,-8.26,-2.69,-4.29,-8.36,-2.59,-4.40,50.29
5411522,92.50,-58.50,149.56,-0.13,-0.01,-0.05,0.09,0.02,0.08,44.56,18.06,0.69,-8.26,-2.56,-4.33,-8.36,-2.58,-4.41,50.23
5411552,92.19,-58.50,149.69,-0.17,-0.03,-0.05,0.10,0.18,0.12,44.56,18.56,0.19,-8.26,-2.39,-4.29,-8.36,-2.57,-4.42,50.29
5411582,91.81,-58.50,149.81,-0.16,-0.03,-0.04,0.26,0.14,-0.07,44.56,18.56,0.19,-8.10,-2.42,-4.50,-8.36,-2.56,-4.42,50.25
5411611,91.44,-58.50,149.94,-0.12,-0.01,-0.02,0.17,0.02,-0.25,45.00,19.38,1.50,-8.19,-2.53,-4.69,-8.36,-2.55,-4.43,50.28
5411642,91.31,-58.50,150.06,-0.01,-0.02,0.03,0.03,0.10,-0.13,45.00,19.38,1.50,-8.32,-2.44,-4.57,-8.36,-2.54,-4.44,50.23
5411672,91.19,-58.50,150.12,0.00,-0.04,0.01,0.09,0.16,0.04,43.75,19.00,1.50,-8.27,-2.38,-4.38,-8.36,-2.54,-4.43,50.24
5411702,91.19,-58.56,150.12,-0.01,-0.04,-0.00,0.07,0.02,0.04,43.75,19.00,1.50,-8.29,-2.52,-4.38,-8.37,-2.54,-4.42,50.18
5411732,91.19,-58.62,150.06,0.02,-0.01,0.02,0.00,-0.12,-0.04,43.75,19.00,1.50,-8.36,-2.66,-4.47,-8.37,-2.54,-4.42,50.18
5411762,91.19,-58.62,150.06,0.04,0.00,0.04,0.12,-0.05,-0.03,44.19,19.00,2.00,-8.25,-2.59,-4.45,-8.37,-2.53,-4.42,50.18
5411792,91.19,-58.69,150.12,0.03,-0.00,0.05,0.08,0.00,0.00,44.19,19.00,2.00,-8.29,-2.53,-4.41,-8.38,-2.53,-4.41,50.17
5411823,91.25,-58.69,150.19,0.01,-0.01,0.02,0.10,0.00,0.03,43.75,18.19,0.19,-8.27,-2.52,-4.38,-8.38,-2.52,-4.41,50.15
5411851,91.19,-58.75,150.19,-0.02,-0.02,0.01,0.10,0.04,0.09,43.75,18.56,0.69,-8.29,-2.49,-4.35,-8.38,-2.52,-4.41,50.16
5411882,91.06,-58.75,150.25,-0.03,-0.01,0.01,0.02,0.10,0.05,43.75,18.56,0.69,-8.35,-2.41,-4.36,-8.38,-2.51,-4.41,50.15
5411912,90.94,-58.75,150.31,-0.04,-0.00,0.01,0.01,0.10,-0.03,44.19,18.19,2.00,-8.37,-2.40,-4.44,-8.38,-2.51,-4.41,50.28
5411943,90.88,-58.75,150.38,0.02,-0.00,0.01,0.05,0.15,0.02,44.19,18.19,2.00,-8.33,-2.35,-4.39,-8.38,-2.50,-4.41,50.19
5411973,90.94,-58.81,150.38,0.04,-0.00,0.00,0.16,0.14,0.00,45.25,18.56,2.00,-8.22,-2.36,-4.41,-8.39,-2.50,-4.41,50.21
5412003,91.12,-58.75,150.25,0.09,-0.01,0.01,0.19,-0.04,-0.12,44.56,18.19,0.69,-8.19,-2.56,-4.53,-8.38,-2.51,-4.41,50.26
5412033,91.38,-58.81,150.19,0.10,-0.01,0.03,0.01,-0.05,-0.01,44.56,18.19,0.69,-8.37,-2.57,-4.42,-8.38,-2.52,-4.40,50.27
5412063,91.50,-58.81,150.06,0.07,-0.02,0.02,0.04,0.00,0.16,44.56,19.38,1.06,-8.34,-2.53,-4.22,-8.39,-2.52,-4.39,50.18
5412093,91.62,-58.88,150.00,0.02,-0.02,-0.00,0.11,-0.01,0.21,44.56,19.38,1.06,-8.28,-2.54,-4.17,-8.39,-2.53,-4.38,50.17
5412121,91.62,-58.88,149.94,-0.01,-0.01,-0.02,0.06,-0.01,0.09,43.75,18.56,-0.19,-8.33,-2.55,-4.29,-8.39,-2.53,-4.38,50.21
5412152,91.62,-58.88,149.88,-0.01,-0.01,-0.02,0.02,-0.02,-0.03,44.19,18.56,0.69,-8.36,-2.56,-4.41,-8.39,-2.54,-4.38,50.14
5412183,91.62,-58.88,149.88,0.03,-0.02,-0.00,0.07,0.01,-0.10,44.19,18.56,0.69,-8.32,-2.52,-4.48,-8.39,-2.54,-4.37,50.16
5412213,91.81,-58.88,149.69,0.06,-0.03,0.00,0.18,0.01,-0.02,44.19,18.56,1.50,-8.22,-2.54,-4.39,-8.40,-2.55,-4.37,50.21
5412243,91.88,-58.94,149.62,0.07,-0.03,-0.00,0.19,-0.01,0.00,44.19,18.56,1.50,-8.21,-2.57,-4.35,-8.40,-2.55,-4.36,50.27
5412273,92.12,-58.94,149.38,0.09,-0.03,0.02,0.14,-0.07,0.00,44.19,19.00,0.19,-8.26,-2.64,-4.35,-8.40,-2.56,-4.34,50.36
5412303,92.31,-59.00,149.25,0.10,-0.02,0.03,0.12,-0.10,0.00,44.19,18.19,0.19,-8.28,-2.68,-4.32,-8.40,-2.57,-4.33,50.30
5412334,92.50,-59.06,149.19,0.09,-0.03,0.06,0.18,-0.09,0.00,44.19,18.19,0.19,-8.22,-2.66,-4.32,-8.41,-2.57,-4.32,50.31
5412363,92.69,-59.19,149.12,0.13,-0.03,0.09,0.22,-0.06,0.03,45.00,17.88,-0.19,-8.19,-2.64,-4.27,-8.42,-2.57,-4.30,50.22
5412394,92.88,-59.31,149.06,0.17,-0.05,0.14,0.37,-0.19,-0.12,45.00,17.88,-0.19,-8.05,-2.76,-4.40,-8.43,-2.56,-4.28,50.21
5412424,93.19,-59.56,149.06,0.32,-0.08,0.31,0.09,-0.26,-0.27,45.00,18.19,-0.19,-8.36,-2.81,-4.52,-8.45,-2.55,-4.25,50.17
5412454,93.50,-59.94,149.25,0.42,-0.06,0.42,-0.04,-0.11,-0.15,45.00,17.50,0.69,-8.54,-2.62,-4.36,-8.49,-2.50,-4.21,50.15
5412484,93.88,-60.38,149.44,0.43,-0.06,0.40,0.04,-0.05,0.00,45.00,17.50,0.69,-8.48,-2.51,-4.17,-8.52,-2.45,-4.17,50.16
5412511,94.19,-60.81,149.62,0.32,-0.08,0.30,0.12,-0.04,0.26,44.19,17.19,0.19,-8.44,-2.45,-3.86,-8.56,-2.41,-4.12,50.24
5412537,94.25,-61.00,149.69,0.09,-0.10,0.18,0.05,0.03,0.54,44.19,17.19,0.19,-8.53,-2.34,-3.54,-8.58,-2.38,-4.08,50.08
5412570,94.00,-61.25,149.88,-0.04,-0.10,0.09,0.02,0.12,0.59,45.00,16.69,-1.06,-8.56,-2.21,-3.52,-8.60,-2.35,-4.06,50.13
5412595,93.50,-61.44,150.06,-0.19,-0.06,-0.01,0.03,0.17,0.33,45.00,16.69,-1.06,-8.59,-2.19,-3.79,-8.61,-2.32,-4.05,50.17
5412626,93.00,-61.50,150.31,-0.18,0.01,-0.02,0.04,0.18,0.05,45.00,16.00,0.19,-8.57,-2.12,-4.01,-8.61,-2.31,-4.06,50.06
5412656,92.69,-61.44,150.62,-0.11,0.08,0.04,0.18,0.19,-0.10,45.69,15.56,-1.50,-8.43,-2.10,-4.19,-8.61,-2.29,-4.08,50.15
5412689,92.44,-61.31,151.19,-0.05,0.11,0.12,0.19,0.14,-0.13,45.69,15.56,-1.50,-8.41,-2.12,-4.25,-8.60,-2.24,-4.13,50.17
5412716,92.25,-61.25,151.88,0.10,0.16,0.23,0.05,-0.02,-0.17,45.25,16.00,-1.50,-8.54,-2.22,-4.33,-8.59,-2.20,-4.16,50.16
5412745,92.38,-61.19,152.62,0.20,0.22,0.30,-0.18,-0.08,-0.20,45.25,16.00,-1.50,-8.77,-2.25,-4.39,-8.59,-2.17,-4.19,50.25
5412779,92.75,-61.06,153.31,0.34,0.23,0.35,-0.28,-0.13,-0.07,46.06,15.56,-0.69,-8.87,-2.26,-4.30,-8.58,-2.12,-4.23,50.31
5412803,93.12,-61.00,154.00,0.29,0.23,0.32,-0.14,-0.18,0.07,46.06,15.19,-0.19,-8.72,-2.26,-4.19,-8.57,-2.08,-4.27,50.26
5412834,93.50,-60.88,154.56,0.24,0.21,0.25,-0.07,-0.21,0.13,46.06,15.19,-0.19,-8.64,-2.25,-4.17,-8.56,-2.04,-4.30,50.21
5412863,93.75,-60.75,154.81,0.19,0.18,0.15,-0.10,-0.09,0.26,46.75,14.50,0.19,-8.66,-2.12,-4.07,-8.55,-2.03,-4.33,50.23
5412894,94.06,-60.62,154.94,-0.02,0.11,0.01,0.02,0.07,0.49,46.75,14.50,0.19,-8.52,-1.95,-3.86,-8.54,-2.02,-4.35,50.13
5412925,93.56,-60.56,155.19,-0.37,0.03,-0.15,0.18,0.16,0.47,47.56,13.69,0.69,-8.35,-1.85,-3.89,-8.54,-2.01,-4.37,50.13
5412955,92.69,-60.44,155.38,-0.51,-0.01,-0.26,0.26,0.11,0.26,46.75,14.19,-0.69,-8.27,-1.89,-4.12,-8.53,-2.01,-4.39,50.14
5412985,91.75,-60.25,155.44,-0.54,-0.00,-0.31,0.31,0.06,-0.06,46.75,14.19,-0.69,-8.20,-1.95,-4.48,-8.51,-2.01,-4.42,50.18
5413018,90.94,-60.06,155.50,-0.46,-0.01,-0.28,0.22,0.13,-0.41,46.50,14.19,1.50,-8.27,-1.88,-4.86,-8.50,-2.02,-4.44,50.22
5413043,90.31,-59.94,155.50,-0.27,-0.01,-0.16,0.10,0.06,-0.62,46.50,14.19,1.50,-8.38,-1.96,-5.08,-8.48,-2.03,-4.46,50.21
5413074,90.38,-59.88,155.44,0.10,0.01,-0.00,0.14,0.07,-0.50,46.50,15.69,2.00,-8.33,-1.96,-4.97,-8.48,-2.04,-4.47,50.21
5413104,91.00,-59.81,155.19,0.33,0.03,0.06,0.24,-0.01,-0.07,46.50,15.69,1.06,-8.23,-2.08,-4.54,-8.48,-2.06,-4.46,50.22
5413133,91.88,-59.81,154.81,0.35,0.05,0.06,0.20,-0.25,0.09,46.50,15.69,1.06,-8.27,-2.34,-4.36,-8.47,-2.09,-4.45,50.25
5413164,92.44,-59.75,154.56,0.28,0.08,0.02,-0.03,-0.30,0.23,45.69,15.25,0.19,-8.50,-2.43,-4.22,-8.47,-2.12,-4.45,50.27
5413195,93.25,-59.62,154.12,0.11,0.08,-0.04,-0.16,-0.21,0.23,45.69,15.25,0.19,-8.62,-2.37,-4.22,-8.46,-2.15,-4.45,50.29
5413221,93.50,-59.50,153.94,-0.01,0.04,-0.08,-0.18,-0.19,0.02,46.06,15.69,1.50,-8.64,-2.38,-4.43,-8.45,-2.18,-4.46,50.28
5413250,93.56,-59.44,153.81,-0.03,0.02,-0.09,-0.05,-0.16,0.00,46.06,15.69,1.50,-8.50,-2.35,-4.46,-8.44,-2.20,-4.47,50.28
5413277,93.62,-59.38,153.62,-0.09,-0.01,-0.11,0.34,-0.03,0.05,46.06,15.69,1.50,-8.09,-2.25,-4.42,-8.43,-2.21,-4.47,50.22
5413307,93.44,-59.25,153.56,-0.14,-0.01,-0.11,0.39,-0.08,0.04,46.50,15.25,1.06,-8.03,-2.31,-4.43,-8.43,-2.22,-4.48,50.33
5413335,93.19,-59.19,153.62,-0.15,-0.01,-0.08,0.39,0.02,0.10,46.50,15.25,1.06,-8.00,-2.17,-4.38,-8.42,-2.22,-4.49,50.29
5413365,92.81,-59.19,153.75,-0.17,0.00,-0.03,0.29,0.10,0.06,46.06,15.69,0.69,-8.12,-2.10,-4.44,-8.42,-2.21,-4.50,50.32
5413395,92.44,-59.12,154.06,-0.14,0.02,0.00,0.19,0.14,-0.13,46.06,15.69,0.69,-8.22,-2.05,-4.65,-8.42,-2.19,-4.51,50.22
5413422,92.25,-59.06,154.31,-0.04,0.05,0.02,0.10,0.09,-0.21,45.69,15.69,1.50,-8.31,-2.09,-4.74,-8.41,-2.18,-4.53,50.26
5413453,92.19,-59.00,154.38,-0.01,0.05,0.01,0.06,0.08,-0.19,46.50,15.69,0.19,-8.42,-2.08,-4.74,-8.40,-2.17,-4.55,50.25
5413483,92.31,-58.94,154.44,0.05,0.02,-0.03,-0.10,0.13,-0.14,46.50,15.69,0.19,-8.50,-2.05,-4.71,-8.40,-2.18,-4.56,50.27
5413514,92.50,-58.88,154.25,0.05,-0.01,-0.07,0.02,0.06,-0.01,45.25,15.69,2.38,-8.37,-2.14,-4.57,-8.39,-2.20,-4.55,50.31
5413545,92.88,-58.81,153.88,0.05,-0.01,-0.06,0.08,-0.05,0.05,45.25,15.69,2.38,-8.30,-2.28,-4.50,-8.39,-2.22,-4.55,50.27
5413571,93.06,-58.81,153.69,0.05,0.01,-0.04,0.16,-0.06,0.07,45.69,16.06,2.00,-8.22,-2.31,-4.47,-8.39,-2.24,-4.55,50.35
5413601,93.19,-58.75,153.56,0.03,0.02,-0.03,0.26,-0.04,0.12,45.69,16.06,2.00,-8.11,-2.30,-4.43,-8.38,-2.26,-4.55,50.41
5413627,93.25,-58.69,153.50,-0.02,0.02,-0.04,0.24,-0.10,-0.07,45.25,15.69,1.06,-8.13,-2.37,-4.63,-8.38,-2.27,-4.55,50.40
5413658,93.25,-58.62,153.44,-0.03,0.00,-0.04,0.16,-0.05,-0.13,46.75,15.69,2.75,-8.21,-2.32,-4.69,-8.37,-2.27,-4.56,50.34
5413686,93.25,-58.62,153.38,-0.03,-0.00,-0.04,0.02,-0.01,-0.17,46.75,15.69,2.75,-8.32,-2.31,-4.74,-8.37,-2.28,-4.56,50.26
5413712,93.38,-58.56,153.31,0.02,-0.00,-0.03,0.13,-0.03,-0.10,45.69,15.69,0.69,-8.22,-2.32,-4.67,-8.36,-2.29,-4.56,50.28
5413738,93.50,-58.56,153.19,0.06,-0.01,-0.02,0.24,-0.15,0.03,45.69,15.69,0.69,-8.11,-2.46,-4.53,-8.36,-2.30,-4.56,50.27
5413764,93.69,-58.56,153.06,0.07,-0.02,0.00,0.23,-0.19,0.12,45.69,16.38,1.50,-8.13,-2.51,-4.43,-8.36,-2.31,-4.55,50.24
5413795,93.75,-58.56,152.94,-0.02,-0.04,-0.00,0.18,-0.13,0.18,45.69,16.38,1.50,-8.18,-2.45,-4.36,-8.37,-2.32,-4.54,50.32
5413821,93.50,-58.62,152.94,-0.13,-0.04,-0.02,-0.06,-0.09,0.07,45.69,16.06,2.38,-8.44,-2.40,-4.46,-8.37,-2.31,-4.54,50.13
5413847,93.25,-58.69,153.06,-0.14,-0.05,-0.01,-0.04,-0.04,0.01,45.25,15.69,2.00,-8.33,-2.29,-4.53,-8.38,-2.30,-4.53,50.24
5413875,92.88,-58.75,153.19,-0.10,-0.04,-0.00,0.19,0.00,0.00,45.25,15.69,2.00,-8.19,-2.28,-4.53,-8.38,-2.29,-4.53,50.28
5413904,92.69,-58.81,153.25,-0.11,-0.06,-0.01,0.22,0.00,-0.03,45.25,15.69,1.50,-8.17,-2.28,-4.56,-8.39,-2.27,-4.53,50.23
5413934,92.38,-58.88,153.31,-0.10,-0.07,-0.02,0.12,0.01,-0.02,45.25,15.69,1.50,-8.27,-2.25,-4.54,-8.40,-2.26,-4.52,50.23
5413962,92.06,-59.00,153.38,-0.11,-0.07,-0.01,0.09,0.07,-0.04,45.69,15.69,2.00,-8.31,-2.18,-4.55,-8.41,-2.25,-4.51,50.17
5413991,91.69,-59.12,153.50,-0.07,-0.06,0.01,0.02,0.19,0.06,45.69,15.69,2.00,-8.39,-2.04,-4.43,-8.42,-2.24,-4.50,50.19
5414021,91.50,-59.19,153.56,-0.06,-0.05,0.01,0.03,0.22,-0.01,46.06,16.75,1.50,-8.37,-2.05,-4.54,-8.42,-2.22,-4.49,50.13
5414049,91.31,-59.25,153.56,-0.03,-0.05,0.00,0.12,0.07,-0.09,46.06,16.75,1.50,-8.30,-2.15,-4.57,-8.43,-2.22,-4.48,50.14
5414076,91.25,-59.38,153.56,0.00,-0.07,0.01,0.16,0.11,0.01,46.06,16.75,1.50,-8.26,-2.10,-4.42,-8.44,-2.22,-4.46,50.05
5414104,91.19,-59.44,153.50,0.01,-0.06,0.01,0.19,0.09,0.03,45.69,16.75,1.50,-8.25,-2.11,-4.41,-8.44,-2.21,-4.45,50.06
5414134,91.19,-59.50,153.44,0.06,-0.03,0.03,0.20,0.06,0.02,45.69,16.75,1.50,-8.25,-2.15,-4.41,-8.45,-2.21,-4.44,50.18
5414163,91.31,-59.56,153.38,0.08,-0.02,0.04,0.08,-0.02,0.01,45.25,16.06,2.00,-8.38,-2.32,-4.42,-8.46,-2.22,-4.43,50.14
5414193,91.50,-59.62,153.31,0.09,-0.02,0.05,0.01,-0.13,-0.02,45.25,16.06,2.00,-8.45,-2.35,-4.44,-8.46,-2.22,-4.42,50.14
5414223,91.62,-59.75,153.25,0.07,-0.04,0.05,0.03,-0.11,-0.01,45.25,16.06,1.06,-8.44,-2.28,-4.45,-8.47,-2.21,-4.40,50.06
5414252,91.62,-59.81,153.19,0.03,-0.05,0.02,0.21,-0.06,0.08,45.25,16.06,1.06,-8.25,-2.22,-4.27,-8.48,-2.21,-4.39,50.13
5414283,91.69,-59.88,153.12,0.04,-0.02,0.02,0.12,0.00,0.01,45.69,16.06,1.50,-8.39,-2.24,-4.35,-8.48,-2.21,-4.38,50.20
5414311,91.81,-59.94,153.12,0.07,0.00,0.04,0.03,0.00,0.03,46.06,16.06,0.69,-8.45,-2.22,-4.34,-8.48,-2.21,-4.37,50.17
5414342,92.00,-59.94,153.12,0.11,0.01,0.06,0.03,0.03,-0.01,46.06,16.06,0.69,-8.45,-2.21,-4.44,-8.49,-2.21,-4.37,50.21
5414372,92.19,-59.94,153.12,0.10,0.03,0.06,0.00,0.02,-0.15,45.69,15.69,1.50,-8.51,-2.21,-4.47,-8.49,-2.21,-4.37,50.19
5414401,92.44,-59.94,153.06,0.14,0.03,0.04,-0.03,-0.04,0.01,45.69,15.69,1.50,-8.52,-2.26,-4.36,-8.49,-2.21,-4.37,50.20
5414432,92.81,-59.94,152.94,0.15,0.03,0.04,0.03,-0.20,0.05,45.00,16.06,0.19,-8.47,-2.46,-4.31,-8.48,-2.23,-4.37,50.14
5414460,93.19,-59.94,152.75,0.15,0.02,0.04,-0.02,-0.26,0.10,46.06,15.25,-0.69,-8.51,-2.50,-4.26,-8.48,-2.24,-4.36,50.08
5414486,93.50,-59.94,152.62,0.10,0.02,0.04,-0.07,-0.24,0.12,46.06,15.25,-0.69,-8.56,-2.50,-4.23,-8.49,-2.25,-4.35,50.13
5414515,93.56,-59.94,152.56,0.04,0.01,0.02,0.01,-0.08,0.15,46.50,16.38,0.69,-8.47,-2.34,-4.19,-8.49,-2.25,-4.35,50.06
5414545,93.56,-59.94,152.56,-0.04,0.02,-0.02,0.13,-0.08,0.01,46.50,16.38,0.69,-8.34,-2.34,-4.34,-8.48,-2.26,-4.36,50.09
5414575,93.56,-59.88,152.56,-0.03,0.03,-0.03,0.16,-0.16,-0.04,45.69,16.06,0.19,-8.32,-2.43,-4.41,-8.48,-2.26,-4.37,50.19
5414603,93.56,-59.81,152.56,-0.02,0.01,-0.02,0.13,-0.09,-0.02,46.50,16.06,0.69,-8.32,-2.33,-4.33,-8.47,-2.26,-4.37,50.19
5414634,93.38,-59.81,152.62,-0.08,-0.05,-0.00,0.27,-0.01,0.12,46.50,16.06,0.69,-8.21,-2.27,-4.24,-8.48,-2.25,-4.37,50.14
5414663,93.06,-59.94,152.75,-0.14,-0.05,-0.01,0.32,0.06,0.18,46.06,16.06,0.19,-8.13,-2.13,-4.20,-8.48,-2.24,-4.36,50.21
5414694,92.62,-59.94,152.94,-0.18,-0.01,-0.01,0.36,0.25,0.07,46.06,16.06,0.19,-8.12,-1.97,-4.30,-8.48,-2.22,-4.37,50.23
5414724,92.19,-59.88,153.25,-0.13,0.03,-0.01,0.26,0.07,-0.17,45.00,15.69,2.38,-8.22,-2.12,-4.56,-8.48,-2.20,-4.39,50.20
5414752,92.12,-59.81,153.44,0.05,0.06,0.05,0.15,0.06,-0.19,45.00,15.69,2.38,-8.35,-2.16,-4.59,-8.47,-2.19,-4.41,50.19
5414784,92.25,-59.81,153.62,0.08,0.04,0.09,0.00,0.00,-0.08,45.69,15.25,0.69,-8.52,-2.20,-4.41,-8.47,-2.18,-4.41,50.24
5414812,92.25,-59.88,153.75,0.04,-0.01,0.07,-0.04,0.05,0.19,45.25,15.25,1.06,-8.51,-2.13,-4.17,-8.48,-2.16,-4.41,50.21
5414843,92.06,-59.94,153.88,-0.08,-0.01,0.03,0.11,0.09,0.10,45.25,15.25,1.06,-8.35,-2.04,-4.37,-8.48,-2.15,-4.41,50.19
5414874,91.75,-59.88,154.12,-0.13,0.04,-0.02,0.09,0.11,-0.05,45.69,15.25,1.06,-8.42,-2.04,-4.61,-8.48,-2.13,-4.43,50.23
5414903,91.56,-59.81,154.31,-0.06,0.04,-0.00,0.09,0.16,-0.18,45.69,15.25,1.06,-8.38,-1.95,-4.63,-8.47,-2.12,-4.44,50.21
5414934,91.38,-59.75,154.50,-0.06,-0.00,-0.01,0.14,0.05,-0.14,46.06,14.88,1.06,-8.29,-2.05,-4.53,-8.47,-2.12,-4.45,50.24
5414962,91.31,-59.75,154.50,-0.03,-0.03,-0.02,0.18,0.02,0.06,46.06,15.69,1.06,-8.29,-2.09,-4.39,-8.47,-2.12,-4.45,50.25
5414988,91.25,-59.81,154.44,-0.02,-0.02,-0.02,0.11,-0.01,0.16,46.06,15.69,1.06,-8.37,-2.13,-4.26,-8.47,-2.12,-4.44,50.26
5415017,91.25,-59.75,154.44,-0.04,0.01,-0.03,0.05,-0.03,0.17,45.25,14.88,0.69,-8.41,-2.16,-4.27,-8.47,-2.12,-4.45,50.23
5415046,91.12,-59.69,154.44,-0.06,0.02,-0.04,-0.06,-0.04,0.04,45.25,14.88,0.69,-8.53,-2.17,-4.40,-8.47,-2.12,-4.45,50.27
5415076,91.06,-59.69,154.44,-0.06,0.01,-0.06,0.12,0.04,-0.03,45.25,15.69,1.06,-8.33,-2.08,-4.50,-8.46,-2.13,-4.46,50.24
5415105,91.06,-59.62,154.38,-0.06,0.00,-0.09,0.28,0.13,-0.07,46.50,16.38,1.06,-8.17,-2.01,-4.54,-8.46,-2.14,-4.46,50.16
5415135,91.12,-59.56,154.19,-0.03,-0.03,-0.13,0.21,0.21,-0.16,46.50,16.38,1.06,-8.24,-1.95,-4.63,-8.45,-2.16,-4.46,50.17
5415164,91.25,-59.50,153.81,-0.02,-0.08,-0.16,0.20,0.00,-0.18,46.50,15.25,1.06,-8.20,-2.14,-4.66,-8.45,-2.20,-4.45,50.29
5415195,91.50,-59.50,153.31,0.03,-0.11,-0.14,0.22,0.07,-0.25,46.50,15.25,1.06,-8.22,-2.16,-4.68,-8.45,-2.24,-4.43,50.24
5415224,91.62,-59.62,152.81,0.04,-0.17,-0.13,0.09,-0.03,-0.13,45.25,16.06,1.06,-8.37,-2.31,-4.52,-8.46,-2.27,-4.39,50.29
5415253,92.00,-59.75,152.06,0.11,-0.19,-0.14,0.02,-0.17,-0.06,45.25,16.06,1.06,-8.56,-2.69,-4.34,-8.48,-2.32,-4.34,50.26
5415284,92.38,-59.94,151.25,0.08,-0.18,-0.15,-0.26,-0.50,0.16,45.69,16.06,-0.69,-8.75,-2.88,-4.12,-8.49,-2.37,-4.29,50.28
5415313,92.56,-60.06,150.62,-0.01,-0.17,-0.15,-0.19,-0.55,0.32,46.06,17.19,-0.19,-8.62,-2.93,-3.88,-8.50,-2.40,-4.25,50.22
5415344,92.38,-60.19,150.12,-0.17,-0.18,-0.17,-0.02,-0.52,0.39,46.06,17.19,-0.19,-8.54,-2.97,-3.82,-8.51,-2.42,-4.21,50.18
5415375,92.00,-60.25,149.56,-0.37,-0.17,-0.22,-0.05,-0.48,0.29,45.69,16.75,-0.69,-8.57,-2.95,-3.88,-8.52,-2.46,-4.18,50.27
5415404,91.44,-60.31,149.06,-0.43,-0.14,-0.25,0.00,-0.41,0.32,45.69,16.75,-0.69,-8.41,-2.85,-3.81,-8.52,-2.50,-4.16,50.26
5415435,91.00,-60.25,148.62,-0.35,-0.10,-0.25,0.35,-0.31,0.40,44.19,17.50,0.19,-8.16,-2.85,-3.74,-8.51,-2.53,-4.15,50.21
5415463,90.44,-60.12,148.50,-0.40,-0.08,-0.26,0.48,-0.48,0.47,45.25,17.50,0.19,-8.01,-3.02,-3.68,-8.50,-2.55,-4.16,50.26
5415489,89.69,-60.00,148.44,-0.57,-0.06,-0.25,0.12,-0.41,0.44,45.25,17.50,0.19,-8.48,-2.91,-3.75,-8.49,-2.55,-4.18,50.27
5415520,88.19,-59.88,148.94,-0.85,-0.05,-0.28,-0.15,-0.16,0.45,45.25,19.38,1.50,-8.64,-2.70,-3.76,-8.48,-2.53,-4.21,50.24
5415549,86.31,-59.69,149.62,-0.96,-0.06,-0.34,-0.14,0.22,0.32,45.25,19.38,1.50,-8.61,-2.27,-3.95,-8.46,-2.49,-4.27,50.22
5415578,84.56,-59.44,150.19,-0.91,-0.06,-0.39,-0.05,0.42,0.02,44.19,19.00,0.69,-8.50,-2.04,-4.29,-8.44,-2.47,-4.32,50.20
5415607,83.06,-59.25,150.50,-0.78,-0.09,-0.40,0.00,0.48,-0.23,44.06,20.06,2.75,-8.42,-1.98,-4.59,-8.42,-2.46,-4.36,50.16
5415637,81.81,-59.06,150.56,-0.66,-0.14,-0.38,0.01,0.57,-0.45,44.06,20.06,2.75,-8.39,-1.90,-4.84,-8.41,-2.47,-4.38,50.11
5415666,81.06,-59.00,150.50,-0.60,-0.20,-0.39,0.09,0.42,-0.44,43.38,20.56,3.25,-8.31,-2.06,-4.83,-8.41,-2.48,-4.38,50.17
5415696,80.06,-59.00,150.25,-0.46,-0.22,-0.38,0.08,0.26,-0.13,43.38,20.56,3.25,-8.32,-2.24,-4.51,-8.40,-2.50,-4.37,50.18
5415726,79.56,-59.00,149.81,-0.41,-0.21,-0.38,-0.08,0.15,0.22,43.00,20.56,2.38,-8.49,-2.38,-4.13,-8.40,-2.54,-4.35,50.14
5415755,78.94,-59.00,149.31,-0.41,-0.21,-0.37,0.03,0.17,0.49,42.19,21.69,2.00,-8.37,-2.41,-3.84,-8.40,-2.58,-4.33,50.16
5415785,78.31,-58.94,148.94,-0.53,-0.16,-0.40,-0.17,0.00,0.42,42.19,21.69,2.00,-8.57,-2.61,-3.90,-8.40,-2.61,-4.33,50.19
5415815,77.50,-58.81,148.62,-0.52,-0.12,-0.38,-0.22,-0.09,0.30,42.19,23.19,2.38,-8.61,-2.73,-4.02,-8.39,-2.64,-4.33,50.21
5415845,76.75,-58.69,148.44,-0.51,-0.06,-0.35,-0.35,-0.05,0.28,42.19,23.19,2.38,-8.73,-2.72,-4.06,-8.37,-2.66,-4.34,50.18
5415876,76.00,-58.56,148.44,-0.62,-0.08,-0.32,-0.38,0.20,0.20,41.50,22.50,2.38,-8.75,-2.46,-4.15,-8.36,-2.67,-4.35,50.25
5415905,74.81,-58.44,148.62,-0.65,-0.10,-0.31,-0.22,0.28,0.14,41.50,23.50,2.00,-8.36,-2.32,-4.26,-8.35,-2.66,-4.38,50.35
5415935,73.88,-58.38,148.81,-0.59,-0.10,-0.29,0.18,0.33,0.03,41.50,23.50,2.00,-8.16,-2.32,-4.36,-8.34,-2.65,-4.40,50.42
5415969,72.56,-58.25,148.94,-0.51,-0.10,-0.26,0.19,0.28,0.01,41.19,24.56,3.69,-8.14,-2.37,-4.40,-8.33,-2.65,-4.42,50.30
5415992,71.50,-58.19,149.12,-0.51,-0.12,-0.22,0.30,0.31,0.18,41.19,24.56,3.69,-8.02,-2.32,-4.24,-8.33,-2.64,-4.43,50.31
5416022,70.88,-58.25,149.31,-0.48,-0.12,-0.17,0.19,0.34,0.23,41.19,24.56,3.69,-8.14,-2.28,-4.20,-8.33,-2.63,-4.43,50.32
5416051,69.81,-58.38,149.62,-0.39,-0.14,-0.09,0.03,0.32,0.19,41.19,24.56,3.69,-8.32,-2.27,-4.24,-8.35,-2.59,-4.43,50.30
5416078,69.00,-58.50,149.94,-0.34,-0.12,-0.04,-0.12,0.30,0.09,40.75,24.88,3.69,-8.53,-2.22,-4.35,-8.37,-2.54,-4.42,50.30
5416107,68.31,-58.62,150.25,-0.28,-0.09,-0.01,-0.16,0.34,0.07,40.75,24.56,4.19,-8.55,-2.16,-4.35,-8.38,-2.51,-4.42,50.23
5416136,67.69,-58.81,150.69,-0.18,-0.06,-0.01,-0.06,0.47,0.12,40.75,24.56,4.19,-8.46,-1.98,-4.29,-8.39,-2.46,-4.41,50.24
5416165,67.19,-59.00,151.00,-0.16,-0.05,-0.03,-0.04,0.53,0.18,40.38,24.75,4.25,-8.45,-1.89,-4.22,-8.41,-2.43,-4.41,50.28
5416196,66.62,-59.12,151.19,-0.14,-0.07,-0.09,-0.06,0.36,0.19,40.38,24.75,4.25,-8.48,-2.05,-4.20,-8.42,-2.42,-4.39,50.21
5416226,66.38,-59.25,151.06,-0.09,-0.08,-0.11,-0.13,0.18,0.10,40.38,24.50,5.56,-8.56,-2.23,-4.27,-8.42,-2.42,-4.38,50.20
5416255,66.25,-59.25,150.81,-0.10,-0.08,-0.12,-0.07,0.15,0.08,40.00,24.88,6.06,-8.49,-2.25,-4.31,-8.43,-2.44,-4.36,50.21
5416285,66.06,-59.31,150.62,-0.08,-0.09,-0.10,0.03,0.26,0.01,40.00,24.88,6.06,-8.40,-2.18,-4.33,-8.43,-2.45,-4.35,50.23
5416314,66.25,-59.38,150.50,-0.07,-0.08,-0.09,0.06,0.29,0.01,41.50,24.88,2.88,-8.37,-2.15,-4.32,-8.44,-2.45,-4.33,50.18
5416340,66.19,-59.44,150.38,0.02,-0.05,-0.06,0.06,0.23,0.03,41.50,24.88,2.88,-8.38,-2.21,-4.22,-8.44,-2.46,-4.32,50.26
5416368,66.31,-59.50,150.12,0.08,-0.07,-0.01,-0.02,0.14,0.12,39.25,25.19,4.38,-8.48,-2.32,-4.17,-8.45,-2.47,-4.30,50.30
5416397,66.38,-59.69,149.94,0.07,-0.09,0.04,-0.03,0.08,0.14,39.25,25.19,4.38,-8.50,-2.38,-4.13,-8.46,-2.47,-4.28,50.19
5416427,66.38,-59.81,149.88,0.05,-0.08,0.07,0.00,0.11,0.18,40.00,25.19,4.25,-8.49,-2.34,-4.06,-8.48,-2.46,-4.25,50.27
5416455,66.31,-60.00,149.88,0.04,-0.06,0.06,0.00,0.08,0.12,40.75,25.56,4.38,-8.47,-2.41,-4.13,-8.49,-2.45,-4.23,50.29
5416486,66.38,-60.12,149.88,0.08,-0.05,0.06,-0.03,0.01,0.07,40.75,25.56,4.38,-8.54,-2.43,-4.14,-8.50,-2.44,-4.21,50.28
5416515,66.50,-60.25,149.75,0.11,-0.05,0.06,0.00,0.05,0.18,40.38,25.19,4.38,-8.56,-2.38,-4.02,-8.51,-2.44,-4.19,50.28
5416546,66.62,-60.38,149.69,0.12,-0.04,0.07,-0.08,0.13,0.25,40.38,25.19,4.38,-8.61,-2.30,-3.92,-8.53,-2.44,-4.17,50.26
5416575,66.75,-60.50,149.62,0.11,-0.03,0.07,-0.07,0.22,0.25,40.38,24.75,5.25,-8.58,-2.19,-3.89,-8.54,-2.43,-4.15,50.21
5416604,66.81,-60.62,149.56,0.11,-0.01,0.05,-0.01,0.26,0.26,40.38,24.75,5.25,-8.52,-2.18,-3.89,-8.55,-2.43,-4.14,50.19
5416635,67.00,-60.69,149.50,0.12,0.00,0.01,0.04,0.17,0.16,40.00,25.69,3.75,-8.49,-2.31,-4.01,-8.55,-2.43,-4.13,50.24
5416664,67.31,-60.69,149.25,0.13,-0.01,0.01,0.04,0.07,0.04,40.75,24.88,3.38,-8.51,-2.44,-4.12,-8.55,-2.45,-4.12,50.09
5416695,67.56,-60.69,149.12,0.13,-0.01,0.03,-0.01,0.01,-0.03,40.75,24.88,3.38,-8.55,-2.38,-4.08,-8.55,-2.45,-4.11,50.13
5416726,67.94,-60.75,149.00,0.16,-0.01,0.05,0.03,0.16,0.08,40.75,25.25,2.88,-8.52,-2.30,-4.01,-8.56,-2.46,-4.09,50.27
5416755,68.19,-60.81,148.81,0.15,-0.01,0.04,-0.02,0.17,0.10,40.75,24.88,2.50,-8.59,-2.34,-4.01,-8.56,-2.47,-4.08,50.24
5416786,68.56,-60.88,148.69,0.19,-0.01,0.05,0.04,0.06,0.09,40.75,24.88,2.50,-8.52,-2.41,-3.97,-8.57,-2.47,-4.06,50.27
5416815,69.00,-60.94,148.50,0.20,0.00,0.07,0.10,0.03,0.13,41.19,24.56,3.50,-8.47,-2.45,-3.88,-8.57,-2.48,-4.05,50.34
5416846,69.38,-61.00,148.38,0.20,0.02,0.07,0.06,-0.03,0.16,41.19,24.56,3.50,-8.51,-2.52,-3.88,-8.57,-2.49,-4.04,50.25
5416876,69.75,-61.00,148.25,0.16,0.03,0.06,-0.13,-0.10,0.07,40.75,24.19,2.50,-8.71,-2.60,-3.95,-8.58,-2.49,-4.03,50.26
5416905,70.06,-61.00,148.19,0.14,0.02,0.05,-0.22,-0.04,0.12,41.19,24.88,3.38,-8.78,-2.48,-3.86,-8.58,-2.50,-4.03,50.35
5416936,70.25,-61.06,148.06,0.09,0.02,0.01,0.00,0.15,0.19,41.19,24.88,3.38,-8.59,-2.34,-3.83,-8.58,-2.50,-4.02,50.40
5416964,70.44,-61.00,148.00,0.08,0.03,-0.02,0.06,0.17,0.15,40.38,24.75,1.56,-8.47,-2.35,-3.88,-8.58,-2.51,-4.02,50.42
5416990,70.75,-60.94,147.81,0.11,0.05,-0.04,0.16,0.15,0.11,40.38,24.75,1.56,-8.39,-2.40,-3.93,-8.57,-2.53,-4.03,50.37
5417019,71.12,-60.81,147.62,0.12,0.07,-0.03,0.16,0.07,0.02,40.75,24.88,1.56,-8.40,-2.47,-4.01,-8.56,-2.55,-4.03,50.40
5417048,71.56,-60.69,147.50,0.14,0.07,-0.01,0.03,-0.05,-0.08,40.75,24.88,1.56,-8.51,-2.63,-4.12,-8.55,-2.57,-4.04,50.35
5417078,71.94,-60.62,147.31,0.17,0.06,0.01,-0.05,-0.10,-0.05,40.75,24.56,4.00,-8.59,-2.69,-4.10,-8.54,-2.59,-4.05,50.31
5417107,72.25,-60.56,147.25,0.17,0.05,0.03,-0.05,-0.18,0.00,40.00,24.50,3.38,-8.59,-2.79,-4.05,-8.54,-2.60,-4.05,50.27
5417137,72.56,-60.50,147.12,0.14,0.05,0.03,-0.06,-0.10,0.10,40.00,24.50,3.38,-8.60,-2.72,-3.94,-8.53,-2.62,-4.05,50.32
5417166,73.12,-60.44,147.00,0.10,0.04,0.02,0.00,-0.08,0.24,41.19,24.50,0.25,-8.54,-2.71,-3.80,-8.53,-2.63,-4.05,50.28
5417197,73.25,-60.44,146.94,0.02,0.02,-0.01,0.20,-0.08,0.18,41.19,24.50,0.25,-8.33,-2.72,-3.86,-8.53,-2.63,-4.05,50.31
5417227,73.31,-60.38,146.88,-0.03,0.03,-0.03,0.10,-0.01,0.05,40.38,24.56,2.50,-8.41,-2.65,-4.00,-8.52,-2.64,-4.06,50.27
5417256,73.25,-60.31,146.94,-0.04,0.03,-0.03,0.06,0.12,0.00,40.75,25.25,3.88,-8.45,-2.52,-4.06,-8.51,-2.64,-4.07,50.34
5417287,73.00,-60.25,147.00,-0.04,0.03,-0.03,0.05,0.11,-0.10,40.75,25.25,3.88,-8.45,-2.53,-4.18,-8.51,-2.64,-4.08,50.37
5417317,72.94,-60.19,147.00,0.02,0.02,-0.02,0.00,0.10,-0.12,41.19,26.00,2.88,-8.51,-2.54,-4.21,-8.51,-2.65,-4.08,50.37
5417347,73.06,-60.12,147.00,0.04,0.02,-0.02,0.05,0.09,-0.03,41.19,26.00,2.88,-8.44,-2.56,-4.12,-8.50,-2.66,-4.09,50.36
5417377,73.25,-60.06,146.88,0.09,0.02,-0.02,0.16,0.05,0.01,40.75,25.19,2.06,-8.33,-2.61,-4.07,-8.50,-2.67,-4.09,50.31
5417406,73.56,-60.00,146.69,0.09,0.04,-0.02,0.10,0.00,0.03,41.50,24.75,2.56,-8.39,-2.69,-4.05,-8.49,-2.69,-4.09,50.37
5417437,73.88,-59.94,146.62,0.10,0.07,-0.01,-0.03,-0.06,0.02,41.50,24.75,2.56,-8.51,-2.76,-4.08,-8.48,-2.70,-4.10,50.26
5417465,74.31,-59.81,146.56,0.17,0.10,0.02,-0.13,-0.03,0.02,40.38,24.75,2.50,-8.63,-2.71,-4.06,-8.47,-2.71,-4.11,50.24
5417497,74.75,-59.69,146.50,0.15,0.08,0.02,-0.02,0.00,0.10,40.38,24.75,2.50,-8.49,-2.72,-4.02,-8.46,-2.73,-4.12,50.24
5417527,75.00,-59.62,146.44,0.09,0.06,0.00,0.12,-0.03,0.05,40.75,24.75,0.25,-8.33,-2.77,-4.07,-8.46,-2.74,-4.13,50.24
5417556,75.25,-59.56,146.38,0.07,0.05,0.00,0.10,-0.03,0.07,40.00,24.88,3.00,-8.37,-2.79,-4.10,-8.45,-2.75,-4.13,50.33
5417587,75.50,-59.50,146.38,0.09,0.06,0.03,0.09,0.00,0.05,40.00,24.88,3.00,-8.35,-2.75,-4.08,-8.44,-2.75,-4.14,50.37
5417616,75.69,-59.44,146.38,0.09,0.06,0.04,0.12,0.02,0.09,40.00,25.25,1.69,-8.34,-2.76,-4.05,-8.44,-2.75,-4.15,50.27
5417647,75.88,-59.38,146.44,0.10,0.06,0.04,0.08,0.00,0.08,40.00,25.25,1.69,-8.35,-2.75,-4.07,-8.44,-2.75,-4.16,50.22
5417677,76.06,-59.38,146.44,0.11,0.06,0.05,0.14,0.01,0.03,40.75,24.88,4.00,-8.29,-2.74,-4.12,-8.43,-2.75,-4.16,50.17
5417707,76.31,-59.31,146.50,0.15,0.06,0.08,0.05,-0.03,-0.04,40.38,25.19,1.69,-8.41,-2.77,-4.18,-8.43,-2.75,-4.16,50.18
5417737,76.69,-59.31,146.50,0.18,0.06,0.09,-0.04,0.03,0.01,40.38,25.19,1.69,-8.47,-2.72,-4.15,-8.43,-2.75,-4.16,50.13
5417766,77.00,-59.31,146.50,0.18,0.05,0.09,0.02,0.07,0.06,40.38,24.56,1.69,-8.32,-2.68,-4.05,-8.43,-2.75,-4.16,50.13
5417797,77.38,-59.38,146.44,0.17,0.05,0.09,0.17,0.04,0.15,40.38,24.56,1.69,-8.26,-2.70,-4.00,-8.44,-2.75,-4.16,50.16
5417828,77.62,-59.38,146.44,0.18,0.06,0.09,0.18,0.00,0.13,41.19,24.88,3.00,-8.25,-2.75,-4.03,-8.44,-2.75,-4.16,50.13
5417856,78.00,-59.38,146.50,0.20,0.09,0.10,0.16,-0.01,0.10,40.75,23.69,2.19,-8.30,-2.73,-4.13,-8.43,-2.75,-4.16,50.19
5417887,78.50,-59.31,146.56,0.23,0.10,0.11,-0.03,-0.02,0.03,40.75,23.69,2.19,-8.47,-2.77,-4.14,-8.43,-2.75,-4.17,50.29
5417916,78.88,-59.31,146.56,0.23,0.08,0.12,-0.07,-0.01,0.00,40.75,24.50,3.00,-8.47,-2.80,-4.20,-8.43,-2.75,-4.17,50.44
5417947,79.31,-59.31,146.62,0.22,0.07,0.11,0.11,-0.11,0.03,40.75,24.50,3.00,-8.32,-2.87,-4.14,-8.43,-2.75,-4.17,50.33
5417977,79.75,-59.31,146.56,0.23,0.05,0.11,0.10,-0.18,0.14,41.19,23.69,2.56,-8.33,-2.94,-4.02,-8.43,-2.75,-4.16,50.34
5418006,80.06,-59.38,146.50,0.14,0.02,0.11,-0.04,-0.17,0.13,41.19,23.69,2.56,-8.52,-2.90,-4.05,-8.44,-2.74,-4.15,50.13
5418037,80.12,-59.44,146.62,0.08,0.03,0.12,-0.07,0.06,0.07,41.50,24.06,1.69,-8.52,-2.66,-4.08,-8.45,-2.73,-4.15,50.15
5418067,80.25,-59.50,146.81,0.11,0.06,0.12,0.02,0.18,0.08,41.19,23.69,1.69,-8.31,-2.47,-4.10,-8.45,-2.71,-4.16,50.13
5418092,80.44,-59.50,147.00,0.20,0.08,0.13,0.20,0.11,-0.10,41.19,23.69,1.69,-8.24,-2.59,-4.27,-8.45,-2.70,-4.17,50.12
5418121,80.88,-59.50,147.06,0.26,0.08,0.16,0.14,-0.01,-0.25,40.75,23.00,1.25,-8.31,-2.71,-4.42,-8.45,-2.69,-4.17,50.22
5418150,81.38,-59.50,147.12,0.29,0.08,0.17,0.04,-0.02,-0.16,40.75,23.00,1.25,-8.41,-2.71,-4.33,-8.45,-2.69,-4.17,50.21
5418181,81.94,-59.56,147.12,0.32,0.06,0.15,0.02,-0.01,0.01,41.50,22.56,0.38,-8.43,-2.70,-4.15,-8.45,-2.69,-4.17,50.24
5418210,82.50,-59.62,147.00,0.33,0.06,0.13,-0.05,-0.02,0.11,41.50,23.06,2.19,-8.51,-2.72,-4.04,-8.46,-2.69,-4.15,50.31
5418239,83.00,-59.62,146.94,0.34,0.09,0.12,0.05,-0.10,0.16,41.50,23.06,2.19,-8.40,-2.81,-3.98,-8.46,-2.70,-4.15,50.31
5418268,83.69,-59.62,146.75,0.31,0.08,0.11,0.07,-0.13,0.17,41.88,22.25,1.69,-8.38,-2.85,-3.97,-8.46,-2.71,-4.14,50.35
5418299,84.19,-59.62,146.62,0.20,0.05,0.10,0.13,-0.11,0.13,41.88,22.25,1.69,-8.32,-2.84,-4.00,-8.46,-2.72,-4.14,50.39
5418329,84.56,-59.62,146.62,0.16,0.04,0.09,0.22,-0.04,0.06,42.19,22.56,0.38,-8.23,-2.76,-4.06,-8.46,-2.72,-4.13,50.36
5418357,84.88,-59.62,146.62,0.15,0.03,0.08,0.24,-0.02,0.02,43.00,22.00,2.56,-8.21,-2.71,-4.09,-8.46,-2.72,-4.13,50.44
5418388,85.12,-59.69,146.56,0.17,0.03,0.08,0.24,-0.04,-0.06,43.00,22.00,2.56,-8.22,-2.77,-4.18,-8.46,-2.72,-4.12,50.37
5418417,85.56,-59.69,146.50,0.22,0.02,0.09,0.11,-0.12,-0.15,42.56,22.25,1.25,-8.35,-2.90,-4.26,-8.46,-2.73,-4.12,50.29
5418448,86.00,-59.75,146.31,0.24,0.01,0.10,0.00,-0.20,0.04,42.56,22.25,1.25,-8.46,-2.94,-4.06,-8.47,-2.73,-4.10,50.34
5418478,86.44,-59.81,146.12,0.20,-0.00,0.07,0.00,-0.19,0.11,42.56,22.56,0.38,-8.48,-2.94,-3.97,-8.47,-2.74,-4.08,50.41
5418508,86.81,-59.81,145.88,0.15,-0.02,0.04,-0.03,-0.31,0.08,43.00,22.25,0.88,-8.50,-3.06,-3.96,-8.48,-2.76,-4.07,50.39
5418538,87.06,-59.88,145.69,0.06,-0.02,0.02,0.08,-0.23,0.04,43.00,22.25,0.88,-8.40,-3.00,-4.01,-8.48,-2.77,-4.05,50.38
5418568,87.06,-59.88,145.56,-0.04,-0.02,-0.01,0.11,-0.13,0.00,42.56,21.88,0.88,-8.36,-2.91,-4.05,-8.48,-2.77,-4.05,50.37
5418599,86.94,-59.88,145.56,-0.08,-0.03,-0.03,0.13,-0.05,0.00,42.56,21.88,0.88,-8.35,-2.83,-4.04,-8.48,-2.77,-4.05,50.39
5418628,86.81,-59.88,145.50,-0.07,-0.03,-0.05,0.16,-0.05,0.02,43.38,21.88,0.38,-8.32,-2.84,-4.02,-8.48,-2.78,-4.05,50.29
5418658,86.75,-59.88,145.44,-0.07,-0.03,-0.05,0.16,-0.07,0.01,42.19,22.25,0.88,-8.32,-2.86,-4.03,-8.48,-2.78,-4.05,50.23
5418688,86.56,-59.88,145.50,-0.08,-0.02,-0.02,0.08,-0.03,-0.10,42.19,22.25,0.88,-8.40,-2.81,-4.15,-8.48,-2.78,-4.05,50.13
5418718,86.44,-59.88,145.56,-0.05,-0.01,-0.00,0.07,0.03,-0.13,42.56,21.88,0.88,-8.33,-2.70,-4.16,-8.48,-2.77,-4.06,50.15
5418748,86.44,-59.88,145.56,0.02,0.00,0.01,0.06,0.09,-0.06,42.56,21.88,0.88,-8.41,-2.68,-4.12,-8.48,-2.77,-4.06,50.12
5418779,86.50,-59.88,145.56,0.03,-0.01,-0.00,-0.02,0.03,-0.10,42.56,23.00,0.38,-8.50,-2.74,-4.16,-8.48,-2.78,-4.05,50.12
5418808,86.50,-59.88,145.50,0.02,-0.02,-0.01,0.02,-0.01,-0.02,42.06,22.25,0.00,-8.43,-2.78,-4.07,-8.48,-2.78,-4.05,50.09
5418839,86.56,-59.88,145.38,-0.01,-0.05,-0.02,0.12,-0.03,0.04,42.06,22.25,0.00,-8.35,-2.82,-3.99,-8.48,-2.78,-4.04,50.15
5418867,86.50,-59.94,145.31,-0.02,-0.05,-0.02,0.09,-0.01,0.05,41.75,21.50,-1.25,-8.38,-2.73,-3.95,-8.49,-2.79,-4.03,50.30
5418899,86.44,-60.00,145.25,-0.03,-0.02,-0.01,0.18,0.00,0.00,41.75,21.50,-1.25,-8.31,-2.78,-4.03,-8.49,-2.79,-4.02,50.31
5418929,86.44,-59.94,145.25,0.01,-0.01,-0.01,0.13,-0.04,-0.07,42.56,22.25,0.38,-8.35,-2.83,-4.10,-8.49,-2.79,-4.03,50.25
5418959,86.44,-60.00,145.25,-0.00,-0.02,-0.01,0.10,-0.01,-0.04,42.19,22.25,0.00,-8.38,-2.81,-4.07,-8.49,-2.79,-4.02,50.25
5418989,86.44,-60.00,145.19,-0.01,-0.02,-0.01,0.19,0.03,0.02,42.19,22.25,0.00,-8.30,-2.76,-3.99,-8.49,-2.79,-4.02,50.28
5419019,86.44,-60.00,145.12,-0.00,-0.01,-0.02,0.11,-0.02,0.02,42.56,21.06,0.88,-8.38,-2.82,-3.99,-8.49,-2.79,-4.01,50.27
5419050,86.44,-60.00,145.06,0.00,-0.01,-0.01,0.00,-0.04,-0.04,42.56,21.06,0.88,-8.50,-2.84,-4.06,-8.49,-2.80,-4.01,50.22
5419079,86.44,-60.00,145.06,0.00,-0.01,0.01,-0.01,-0.15,-0.08,42.25,21.88,0.38,-8.50,-2.95,-4.10,-8.49,-2.80,-4.01,50.15
5419110,86.44,-60.00,145.06,0.00,-0.01,0.03,0.01,-0.17,-0.06,42.56,22.25,0.88,-8.47,-2.97,-4.07,-8.49,-2.79,-4.01,50.17
5419140,86.38,-60.06,145.12,-0.02,-0.00,0.04,0.08,-0.06,0.05,42.56,22.25,0.88,-8.41,-2.85,-3.95,-8.50,-2.78,-4.01,50.28
5419169,86.25,-60.06,145.25,-0.04,0.00,0.02,0.13,0.00,0.09,43.38,22.25,0.38,-8.37,-2.78,-3.92,-8.50,-2.77,-4.01,50.30
5419200,86.12,-60.12,145.38,-0.07,0.00,0.00,0.09,-0.02,0.10,43.38,22.25,0.38,-8.41,-2.79,-3.92,-8.50,-2.77,-4.02,50.27
5419230,85.94,-60.12,145.50,-0.08,-0.00,-0.00,0.04,-0.03,0.01,41.75,23.00,0.00,-8.45,-2.79,-4.01,-8.50,-2.76,-4.02,50.21
5419259,85.75,-60.12,145.62,-0.08,0.00,0.01,0.08,0.00,0.00,42.50,21.50,0.00,-8.41,-2.72,-4.02,-8.50,-2.75,-4.03,50.31
5419289,85.56,-60.12,145.75,-0.07,0.01,0.01,0.10,0.06,0.01,42.50,21.50,0.00,-8.39,-2.67,-4.02,-8.50,-2.74,-4.04,50.35
5419319,85.38,-60.06,145.88,-0.06,0.02,0.00,0.04,-0.05,-0.12,42.50,22.56,2.19,-8.45,-2.79,-4.17,-8.50,-2.73,-4.04,50.26
5419350,85.38,-60.06,145.94,-0.01,0.00,0.01,-0.07,-0.07,-0.07,42.50,22.56,2.19,-8.57,-2.81,-4.12,-8.50,-2.73,-4.05,50.29
5419379,85.31,-60.06,145.94,-0.07,-0.02,-0.01,-0.03,-0.01,0.00,41.75,22.25,0.38,-8.54,-2.74,-4.05,-8.50,-2.73,-4.05,50.15
5419409,85.06,-60.12,146.06,-0.08,-0.02,-0.01,0.13,0.05,0.10,42.06,21.88,1.25,-8.36,-2.66,-3.94,-8.50,-2.72,-4.05,50.15
5419440,84.94,-60.12,146.12,-0.03,0.02,-0.01,0.23,-0.01,0.07,42.06,21.88,1.25,-8.26,-2.73,-3.98,-8.50,-2.72,-4.05,50.17
5419469,84.94,-60.06,146.19,-0.01,0.03,-0.00,0.15,-0.09,0.01,42.50,21.88,0.88,-8.34,-2.81,-4.05,-8.49,-2.72,-4.06,50.23
5419499,85.00,-60.00,146.25,-0.01,0.03,-0.01,0.00,-0.08,0.00,42.50,21.88,0.88,-8.48,-2.80,-4.07,-8.49,-2.72,-4.07,50.27
5419530,84.94,-59.94,146.25,-0.04,0.01,-0.04,-0.05,-0.03,-0.06,42.06,22.25,1.69,-8.55,-2.75,-4.14,-8.49,-2.72,-4.08,50.34
5419560,84.94,-59.94,146.19,-0.05,-0.02,-0.05,0.06,-0.03,0.00,42.06,22.56,1.69,-8.42,-2.76,-4.07,-8.48,-2.73,-4.08,50.32
5419590,84.88,-59.88,146.12,-0.06,-0.04,-0.05,0.09,-0.08,0.01,42.06,22.56,1.69,-8.39,-2.81,-4.06,-8.48,-2.73,-4.07,50.22
5419619,84.75,-59.94,146.06,-0.07,-0.05,-0.04,0.15,0.00,0.07,42.88,21.50,0.88,-8.33,-2.74,-3.99,-8.49,-2.73,-4.07,50.27
5419650,84.56,-59.94,146.06,-0.10,-0.04,-0.03,0.18,0.07,0.07,42.88,21.50,0.88,-8.30,-2.66,-3.99,-8.49,-2.73,-4.06,50.18
5419680,84.38,-60.00,146.06,-0.07,-0.02,-0.03,0.09,0.13,0.00,42.06,21.88,1.25,-8.40,-2.60,-4.06,-8.49,-2.73,-4.07,50.18
5419710,84.25,-60.00,146.06,-0.06,-0.02,-0.04,-0.04,0.17,-0.01,42.06,22.56,1.25,-8.54,-2.56,-4.08,-8.49,-2.73,-4.06,50.19
5419740,84.12,-59.94,146.06,-0.00,-0.02,-0.03,0.00,0.01,-0.11,42.06,22.56,1.25,-8.49,-2.72,-4.18,-8.49,-2.73,-4.06,50.16
5419770,84.25,-59.94,145.94,0.04,-0.01,-0.02,0.06,0.02,-0.04,42.50,21.50,0.00,-8.42,-2.72,-4.11,-8.49,-2.74,-4.06,50.17
5419800,84.38,-59.94,145.81,0.06,0.00,0.00,0.14,-0.02,0.02,42.50,21.50,0.00,-8.34,-2.78,-4.03,-8.49,-2.75,-4.05,50.30
5419831,84.56,-59.94,145.69,0.07,0.01,0.01,0.07,-0.08,0.05,41.75,22.56,1.25,-8.41,-2.84,-4.00,-8.49,-2.76,-4.05,50.29
5419861,84.69,-59.94,145.62,0.03,0.02,0.00,0.00,-0.12,0.10,42.88,22.25,0.38,-8.48,-2.89,-3.94,-8.48,-2.76,-4.05,50.21
5419890,84.75,-59.94,145.69,-0.04,0.02,-0.01,-0.05,-0.14,0.11,42.88,22.25,0.38,-8.54,-2.91,-3.94,-8.48,-2.76,-4.05,50.24
5419920,84.56,-59.88,145.81,-0.11,-0.01,0.00,-0.01,-0.12,0.04,42.06,21.88,0.38,-8.50,-2.87,-4.02,-8.48,-2.75,-4.06,50.32
5419951,84.31,-59.88,145.94,-0.06,0.01,0.01,0.15,0.00,-0.07,42.06,21.88,0.38,-8.33,-2.75,-4.14,-8.48,-2.74,-4.07,50.31
5419981,84.19,-59.88,146.06,0.01,0.02,0.02,0.16,0.06,-0.10,42.50,22.56,0.88,-8.32,-2.66,-4.18,-8.48,-2.73,-4.08,50.33
5420010,84.19,-59.88,146.12,0.01,-0.01,0.02,0.17,-0.01,0.00,42.88,22.25,1.69,-8.31,-2.75,-4.07,-8.48,-2.73,-4.08,50.33
5420041,84.19,-59.94,146.12,-0.03,-0.03,0.02,0.09,-0.14,0.08,42.88,22.25,1.69,-8.40,-2.87,-3.98,-8.49,-2.72,-4.07,50.37
5420071,84.00,-60.00,146.19,-0.05,-0.05,0.03,0.03,-0.18,0.11,41.75,22.56,-0.88,-8.45,-2.89,-3.95,-8.49,-2.71,-4.06,50.26
5420101,83.62,-60.12,146.31,-0.11,-0.04,0.01,-0.04,-0.11,0.20,41.75,22.56,-0.88,-8.55,-2.81,-3.85,-8.50,-2.70,-4.06,50.19
5420135,83.25,-60.19,146.50,-0.17,-0.03,-0.01,-0.03,-0.03,0.13,42.50,22.25,0.38,-8.54,-2.72,-3.93,-8.51,-2.68,-4.06,50.10
5420159,82.81,-60.25,146.62,-0.17,-0.05,-0.01,0.05,-0.03,0.06,42.06,22.56,0.88,-8.46,-2.70,-3.99,-8.51,-2.67,-4.06,50.22
5420190,82.56,-60.25,146.75,-0.17,-0.07,-0.00,0.17,-0.05,-0.05,42.06,22.56,0.88,-8.34,-2.70,-4.12,-8.52,-2.65,-4.06,50.21
5420220,82.06,-60.38,146.94,-0.21,-0.08,0.00,0.14,-0.01,-0.09,42.19,21.88,1.69,-8.38,-2.64,-4.15,-8.52,-2.63,-4.06,50.15
5420251,81.44,-60.50,147.19,-0.21,-0.13,0.02,0.17,0.03,-0.18,42.19,21.88,1.69,-8.36,-2.57,-4.23,-8.54,-2.60,-4.05,50.24
5420281,80.88,-60.69,147.38,-0.15,-0.15,0.03,0.20,0.13,-0.16,42.50,22.25,2.19,-8.34,-2.44,-4.19,-8.55,-2.57,-4.03,50.25
5420311,80.31,-60.88,147.44,-0.14,-0.17,0.02,0.23,0.14,-0.08,41.75,21.50,0.88,-8.33,-2.40,-4.09,-8.57,-2.55,-4.01,50.25
5420341,79.62,-61.25,147.50,-0.15,-0.19,0.02,0.25,0.10,-0.08,41.75,21.50,0.88,-8.33,-2.42,-4.06,-8.59,-2.52,-3.98,50.22
5420371,79.12,-61.50,147.50,-0.13,-0.21,0.02,0.24,-0.10,-0.08,42.19,21.88,0.88,-8.37,-2.61,-4.02,-8.62,-2.50,-3.94,50.28
5420401,78.75,-61.69,147.44,-0.18,-0.20,0.02,-0.04,-0.15,0.06,42.19,21.88,0.88,-8.68,-2.64,-3.83,-8.64,-2.48,-3.90,50.21
5420431,77.81,-62.06,147.56,-0.30,-0.17,-0.02,-0.04,-0.05,0.24,42.06,21.88,0.38,-8.71,-2.51,-3.63,-8.66,-2.46,-3.87,50.07
5420461,77.12,-62.25,147.62,-0.26,-0.13,-0.04,-0.12,-0.06,0.24,43.25,22.56,0.88,-8.80,-2.50,-3.60,-8.68,-2.44,-3.85,50.10
5420492,76.62,-62.38,147.69,-0.21,-0.08,-0.04,-0.07,-0.08,0.27,43.25,22.56,0.88,-8.76,-2.51,-3.56,-8.69,-2.42,-3.84,50.10
5420521,76.31,-62.38,147.75,-0.22,-0.04,-0.04,-0.09,-0.06,0.18,42.50,21.50,0.00,-8.78,-2.48,-3.64,-8.69,-2.41,-3.83,50.19
5420551,75.81,-62.44,147.94,-0.27,-0.06,-0.03,-0.15,-0.05,-0.07,42.50,21.50,0.00,-8.85,-2.44,-3.91,-8.69,-2.39,-3.84,50.19
5420581,74.88,-62.50,148.25,-0.32,-0.08,-0.06,-0.02,0.11,-0.02,42.50,22.25,-0.88,-8.73,-2.25,-3.86,-8.70,-2.37,-3.84,50.23
5420612,74.25,-62.56,148.38,-0.25,-0.09,-0.07,0.25,0.16,0.12,43.00,22.56,1.25,-8.44,-2.20,-3.71,-8.70,-2.36,-3.84,50.24
5420642,74.00,-62.62,148.44,-0.12,-0.06,-0.05,0.26,-0.04,0.10,43.00,22.56,1.25,-8.44,-2.40,-3.72,-8.71,-2.35,-3.83,50.23
5420672,73.69,-62.62,148.44,-0.10,0.00,-0.04,0.30,-0.02,0.29,43.38,23.00,1.25,-8.40,-2.37,-3.54,-8.71,-2.35,-3.83,50.20
5420702,73.56,-62.56,148.38,-0.09,0.01,-0.05,0.05,-0.09,0.32,43.38,23.00,1.25,-8.65,-2.45,-3.51,-8.70,-2.36,-3.84,50.24
5420728,73.50,-62.56,148.38,-0.09,-0.01,-0.06,-0.29,-0.16,0.21,42.19,22.56,0.38,-9.00,-2.53,-3.62,-8.70,-2.36,-3.84,50.17
5420757,73.38,-62.56,148.31,-0.09,-0.07,-0.06,-0.42,-0.14,0.16,42.19,22.56,0.38,-9.13,-2.51,-3.67,-8.70,-2.36,-3.84,50.11
5420784,73.12,-62.69,148.19,-0.14,-0.12,-0.06,-0.31,-0.12,0.00,43.00,22.56,0.88,-8.86,-2.49,-3.76,-8.71,-2.37,-3.81,50.18
5420814,72.81,-62.81,147.88,-0.13,-0.17,-0.09,0.22,-0.20,0.18,41.88,21.50,0.38,-8.49,-2.57,-3.61,-8.72,-2.37,-3.79,50.25
5420842,72.44,-62.94,147.62,-0.24,-0.13,-0.14,0.41,-0.07,0.13,41.88,21.50,0.38,-8.32,-2.46,-3.62,-8.73,-2.38,-3.76,50.20
5420871,71.94,-62.94,147.62,-0.48,-0.09,-0.20,0.37,-0.02,0.03,41.50,23.25,0.00,-8.35,-2.41,-3.73,-8.73,-2.38,-3.77,50.18
5420902,70.75,-62.81,147.81,-0.50,-0.05,-0.21,0.15,0.17,0.05,41.50,23.25,0.00,-8.57,-2.20,-3.72,-8.72,-2.38,-3.78,50.21
5420932,70.25,-62.62,147.75,-0.28,-0.01,-0.22,-0.02,0.20,0.05,42.19,24.06,0.38,-8.73,-2.19,-3.74,-8.71,-2.39,-3.80,50.14
5420963,70.25,-62.44,147.38,-0.14,-0.01,-0.25,-0.30,0.21,-0.10,41.50,23.69,1.25,-9.00,-2.22,-3.92,-8.69,-2.44,-3.81,50.24
5420993,70.19,-62.25,146.88,-0.25,-0.09,-0.30,-0.12,0.49,-0.14,41.50,23.69,1.25,-8.80,-1.99,-3.96,-8.68,-2.48,-3.81,50.16
5421021,69.62,-62.19,146.50,-0.38,-0.16,-0.35,0.11,0.55,-0.13,41.19,23.69,1.25,-8.56,-1.96,-3.94,-8.67,-2.51,-3.81,50.25
5421052,69.38,-62.19,146.06,-0.23,-0.17,-0.30,0.37,0.38,-0.04,41.19,23.69,1.25,-8.30,-2.18,-3.83,-8.67,-2.56,-3.78,50.27
5421082,69.31,-62.12,145.25,-0.11,-0.08,-0.18,0.25,0.28,-0.19,40.38,24.75,1.69,-8.41,-2.32,-3.96,-8.66,-2.61,-3.76,50.23
5421112,69.38,-62.00,145.12,0.01,0.03,-0.07,-0.01,0.07,-0.18,41.19,24.50,2.19,-8.67,-2.55,-3.95,-8.66,-2.62,-3.77,50.24
5421141,69.75,-61.88,145.00,0.16,0.09,-0.01,-0.31,-0.02,-0.09,41.19,24.50,2.19,-8.96,-2.66,-3.88,-8.65,-2.64,-3.78,50.26
5421171,70.12,-61.75,144.88,0.12,0.05,-0.02,-0.48,0.05,-0.02,39.88,25.56,0.88,-9.12,-2.60,-3.81,-8.64,-2.66,-3.79,50.24
5421201,70.25,-61.75,144.75,0.01,-0.02,-0.07,0.00,-0.01,0.13,39.88,25.56,0.88,-8.64,-2.69,-3.64,-8.63,-2.68,-3.78,50.24
5421231,70.19,-61.75,144.44,-0.08,-0.09,-0.13,0.34,-0.02,0.40,40.69,24.75,0.88,-8.29,-2.73,-3.37,-8.63,-2.70,-3.77,50.18
5421259,70.19,-61.69,144.06,-0.10,-0.05,-0.17,0.23,0.00,0.52,40.69,24.75,0.88,-8.60,-2.64,-3.21,-8.63,-2.73,-3.76,50.22
5421290,70.06,-61.50,143.88,-0.23,0.02,-0.21,-0.16,0.13,0.45,40.69,25.19,1.25,-8.78,-2.61,-3.41,-8.61,-2.76,-3.79,50.20
5421323,69.69,-61.12,143.94,-0.32,0.04,-0.22,-0.19,0.22,0.25,41.06,26.00,1.69,-8.66,-2.55,-3.73,-8.58,-2.78,-3.83,50.27
5421352,69.38,-60.94,144.00,-0.32,0.02,-0.21,-0.01,0.19,-0.09,41.06,26.00,1.69,-8.57,-2.60,-3.95,-8.56,-2.80,-3.86,50.33
5421381,69.00,-60.75,144.00,-0.29,0.01,-0.20,-0.03,0.17,-0.45,39.56,26.69,3.00,-8.58,-2.64,-4.33,-8.55,-2.81,-3.88,50.33
5421410,68.75,-60.56,144.00,-0.21,-0.00,-0.14,-0.14,0.22,-0.54,39.56,26.69,3.00,-8.71,-2.66,-4.44,-8.54,-2.82,-3.90,50.27
5421440,68.38,-60.50,144.12,-0.20,-0.04,-0.05,0.00,0.18,-0.49,40.69,26.25,3.00,-8.41,-2.63,-4.29,-8.53,-2.81,-3.91,50.16
5421469,67.94,-60.62,144.38,-0.04,-0.05,0.09,0.34,0.23,-0.07,38.75,27.06,2.56,-8.20,-2.56,-3.98,-8.55,-2.79,-3.90,50.19
5421500,67.81,-60.81,144.56,0.08,-0.02,0.15,0.30,0.22,0.27,38.75,27.06,2.56,-8.27,-2.58,-3.59,-8.56,-2.76,-3.89,50.12
5421531,67.81,-60.94,144.75,0.11,0.00,0.15,0.16,0.00,0.34,39.19,25.56,2.56,-8.41,-2.73,-3.53,-8.57,-2.73,-3.88,50.06
5421559,67.88,-61.06,144.81,0.10,-0.00,0.10,-0.02,0.00,0.39,39.19,25.56,2.56,-8.70,-2.66,-3.50,-8.58,-2.72,-3.87,50.06
5421590,67.88,-61.12,144.81,0.00,-0.04,0.02,-0.04,0.05,0.33,39.19,26.25,2.56,-8.61,-2.67,-3.56,-8.59,-2.72,-3.86,50.17
5421619,67.69,-61.19,144.75,-0.14,-0.05,-0.10,0.01,0.12,0.23,39.56,26.69,2.19,-8.57,-2.60,-3.62,-8.59,-2.72,-3.85,50.11
5421649,67.44,-61.12,144.62,-0.22,-0.05,-0.17,-0.08,0.10,0.08,39.56,26.69,2.19,-8.74,-2.63,-3.79,-8.58,-2.74,-3.85,50.09
5421679,67.06,-61.06,144.50,-0.23,-0.06,-0.17,-0.34,0.01,-0.05,39.88,26.25,4.38,-8.93,-2.76,-3.90,-8.58,-2.75,-3.85,50.18
5421708,66.56,-61.06,144.50,-0.31,-0.08,-0.10,-0.30,-0.02,-0.02,39.88,26.25,4.38,-8.89,-2.77,-3.88,-8.58,-2.75,-3.86,50.24
5421739,65.75,-61.12,144.88,-0.34,-0.04,-0.00,-0.11,0.04,0.04,39.88,26.06,1.69,-8.69,-2.67,-3.82,-8.58,-2.70,-3.88,50.20
5421766,64.94,-61.12,145.50,-0.26,0.02,0.07,-0.06,0.13,0.13,39.56,26.00,2.56,-8.65,-2.53,-3.75,-8.59,-2.67,-3.89,50.27
5421797,64.38,-61.19,146.06,-0.16,0.06,0.07,-0.13,0.23,0.03,39.56,26.00,2.56,-8.73,-2.39,-3.88,-8.59,-2.63,-3.91,50.24
5421827,64.06,-61.19,146.56,-0.05,0.07,0.05,-0.15,0.19,0.00,38.75,27.06,4.06,-8.75,-2.40,-3.94,-8.59,-2.60,-3.94,50.20
5421856,64.00,-61.19,146.75,0.07,0.04,0.03,0.03,0.27,0.13,38.75,27.06,4.06,-8.56,-2.31,-3.82,-8.59,-2.58,-3.95,50.23
5421884,64.25,-61.19,146.69,0.13,0.01,0.02,0.18,0.29,0.30,39.19,26.75,3.00,-8.40,-2.29,-3.63,-8.59,-2.59,-3.94,50.28
5421912,64.38,-61.19,146.56,0.14,0.02,0.02,0.22,0.19,0.37,38.75,26.69,3.50,-8.36,-2.40,-3.55,-8.59,-2.59,-3.93,50.30
5421942,64.69,-61.25,146.44,0.13,0.03,0.02,-0.04,-0.03,0.06,38.75,26.69,3.50,-8.64,-2.64,-3.86,-8.59,-2.60,-3.92,50.24
5421971,65.00,-61.19,146.38,0.10,0.05,0.02,-0.21,-0.10,-0.08,39.56,26.69,4.38,-8.82,-2.66,-4.05,-8.59,-2.61,-3.93,50.24
5422001,65.12,-61.12,146.44,0.07,0.07,0.05,-0.22,0.03,-0.11,39.56,26.69,4.38,-8.80,-2.55,-4.03,-8.59,-2.60,-3.94,50.19
5422032,65.31,-61.12,146.56,0.15,0.05,0.09,-0.14,0.02,0.00,39.19,26.25,4.00,-8.73,-2.57,-3.93,-8.59,-2.60,-3.94,50.20
5422060,65.56,-61.25,146.56,0.15,-0.00,0.10,-0.03,-0.06,0.00,39.19,26.25,4.00,-8.59,-2.68,-3.96,-8.60,-2.59,-3.93,50.20
5422091,65.75,-61.38,146.50,0.16,-0.03,0.10,0.07,-0.14,-0.02,39.19,26.00,4.38,-8.40,-2.72,-3.82,-8.61,-2.58,-3.91,50.24
5422120,66.00,-61.50,146.38,0.18,-0.03,0.10,0.35,-0.09,0.25,39.19,26.69,3.50,-8.23,-2.67,-3.63,-8.62,-2.58,-3.88,50.25
5422146,66.12,-61.62,146.38,0.12,-0.04,0.09,0.32,-0.08,0.47,39.19,26.69,3.50,-8.31,-2.65,-3.38,-8.63,-2.57,-3.86,50.21
5422177,66.06,-61.81,146.38,0.01,-0.08,0.07,0.07,-0.20,0.36,40.25,26.00,4.88,-8.56,-2.76,-3.48,-8.64,-2.56,-3.85,50.16
5422205,65.75,-61.94,146.44,-0.11,-0.09,0.03,-0.35,-0.29,0.16,40.25,26.00,4.88,-9.01,-2.84,-3.67,-8.65,-2.54,-3.83,50.20
5422236,65.19,-62.12,146.62,-0.25,-0.09,-0.00,-0.84,-0.38,0.04,40.69,26.25,2.19,-9.51,-2.90,-3.78,-8.66,-2.51,-3.83,50.22
5422264,64.38,-62.25,147.00,-0.30,-0.11,0.01,-0.68,-0.28,0.05,39.56,25.69,2.19,-9.36,-2.77,-3.76,-8.68,-2.48,-3.82,50.24
5422293,63.81,-62.38,147.19,-0.37,-0.13,0.00,-0.43,-0.21,0.16,39.56,25.69,2.19,-9.12,-2.66,-3.64,-8.69,-2.44,-3.81,50.19
5422322,62.81,-62.56,147.44,-0.40,-0.13,-0.03,-0.39,-0.23,0.08,39.88,26.38,2.19,-9.36,-2.66,-3.86,-8.71,-2.41,-3.80,50.30
5422352,62.00,-62.75,147.69,-0.31,-0.11,-0.04,-1.09,-0.34,-0.27,39.88,26.38,2.19,-9.81,-2.73,-4.06,-8.72,-2.39,-3.79,50.28
5422382,61.50,-62.81,147.81,-0.17,-0.06,-0.05,-0.98,-0.24,-0.29,39.88,25.56,2.56,-9.71,-2.63,-4.08,-8.72,-2.38,-3.79,50.28
5422411,61.19,-62.75,147.88,-0.18,0.00,-0.07,-0.35,-0.16,-0.06,39.88,25.56,2.56,-8.95,-2.54,-3.78,-8.71,-2.38,-3.80,50.34
5422442,60.94,-62.69,147.88,-0.18,0.01,-0.13,-0.03,-0.08,0.11,40.25,25.56,3.50,-8.74,-2.48,-3.70,-8.70,-2.39,-3.81,50.28
5422470,60.81,-62.50,147.75,-0.16,-0.02,-0.16,0.04,-0.02,0.10,39.19,26.00,3.00,-8.49,-2.32,-3.71,-8.70,-2.41,-3.82,50.29
5422502,60.81,-62.44,147.38,-0.05,-0.07,-0.14,0.56,0.16,0.16,39.19,26.00,3.00,-7.96,-2.16,-3.58,-8.69,-2.45,-3.80,50.25
5422532,60.69,-62.44,147.00,-0.22,-0.08,-0.21,1.02,0.35,0.30,39.56,25.19,5.69,-7.66,-2.12,-3.50,-8.69,-2.47,-3.80,50.25
5422561,60.25,-62.25,146.75,-0.38,-0.05,-0.28,0.50,0.32,0.12,39.56,25.19,5.69,-8.22,-2.22,-3.76,-8.67,-2.50,-3.81,50.22
5422592,60.12,-62.06,146.44,-0.10,-0.02,-0.20,0.56,0.38,0.09,39.88,26.38,4.38,-8.10,-2.16,-3.72,-8.66,-2.54,-3.82,50.21
5422620,60.38,-61.94,146.06,0.04,0.03,-0.15,0.40,0.38,0.05,38.75,27.56,2.25,-8.24,-2.19,-3.77,-8.65,-2.58,-3.82,50.26
5422646,60.88,-61.75,145.62,0.13,0.04,-0.11,-0.33,0.26,-0.12,38.75,27.56,2.25,-9.03,-2.36,-3.90,-8.63,-2.62,-3.82,50.31
5422677,61.25,-61.69,145.31,0.07,0.02,-0.04,-0.25,0.23,-0.07,38.06,26.69,3.50,-8.88,-2.41,-3.90,-8.63,-2.64,-3.82,50.29
5422706,61.44,-61.62,145.19,0.10,-0.00,-0.01,0.02,0.12,-0.12,38.06,26.69,3.50,-8.60,-2.53,-3.94,-8.63,-2.65,-3.82,50.24
5422737,61.94,-61.69,144.75,0.26,-0.04,-0.02,0.38,0.26,0.02,38.38,27.06,4.00,-8.24,-2.41,-3.77,-8.63,-2.68,-3.79,50.26
5422765,62.44,-61.69,144.12,0.09,-0.09,-0.15,0.35,0.12,0.02,38.06,28.19,2.19,-8.27,-2.59,-3.73,-8.63,-2.72,-3.76,50.32
5422795,62.62,-61.69,143.62,-0.06,-0.19,-0.20,0.04,0.09,-0.07,38.06,28.19,2.19,-8.59,-2.67,-3.80,-8.63,-2.77,-3.73,50.31
5422825,62.62,-61.75,142.81,-0.08,-0.26,-0.20,0.99,0.28,0.20,38.19,27.75,3.50,-7.65,-2.52,-3.47,-8.64,-2.81,-3.67,50.24
5422854,62.50,-61.88,142.00,-0.20,-0.27,-0.25,1.18,0.19,0.26,38.19,27.75,3.50,-7.47,-2.65,-3.36,-8.65,-2.85,-3.62,50.23
5422883,62.25,-61.94,141.19,-0.14,-0.24,-0.23,0.74,0.12,0.14,37.75,27.75,3.50,-7.91,-2.77,-3.42,-8.66,-2.89,-3.57,50.29
5422912,62.12,-62.06,140.50,-0.16,-0.21,-0.19,0.28,0.08,0.01,36.88,29.38,2.19,-8.49,-2.86,-3.53,-8.66,-2.92,-3.53,50.21
5422943,61.75,-62.19,140.12,-0.16,-0.18,-0.07,-0.17,0.05,0.00,36.88,29.38,2.19,-8.85,-2.87,-3.50,-8.67,-2.92,-3.50,50.21
5422972,61.56,-62.38,139.94,0.11,-0.12,0.09,-0.03,0.08,0.19,37.75,29.06,1.69,-8.70,-2.84,-3.24,-8.69,-2.91,-3.46,50.25
5423003,61.69,-62.62,139.81,0.15,-0.04,0.13,0.09,0.08,0.30,37.75,29.06,1.69,-8.56,-2.85,-3.15,-8.71,-2.89,-3.43,50.17
5423033,61.62,-62.75,140.00,0.05,0.03,0.11,0.00,0.03,0.21,36.69,28.69,1.69,-8.72,-2.84,-3.22,-8.72,-2.87,-3.43,50.21
5423062,61.75,-62.81,140.19,0.13,0.08,0.11,-0.05,0.08,0.16,37.38,29.06,2.56,-8.72,-2.78,-3.30,-8.72,-2.86,-3.44,50.15
5423093,62.12,-62.81,140.25,0.26,0.10,0.09,0.10,0.05,0.07,37.38,29.06,2.56,-8.61,-2.81,-3.37,-8.72,-2.86,-3.44,50.29
5423124,62.88,-62.69,140.06,0.31,0.12,0.00,-0.11,0.00,0.00,37.38,28.25,1.25,-8.82,-2.89,-3.44,-8.71,-2.89,-3.44,50.31
5423154,63.62,-62.56,139.81,0.26,0.10,-0.03,-0.26,-0.15,-0.03,37.38,28.25,1.25,-8.96,-3.08,-3.49,-8.70,-2.92,-3.45,50.29
5423184,64.31,-62.38,139.50,0.28,0.07,-0.01,-0.17,-0.15,0.01,37.38,28.25,2.19,-8.86,-3.10,-3.43,-8.69,-2.95,-3.45,50.35
5423213,65.00,-62.31,139.12,0.25,0.04,0.00,-0.07,-0.20,0.12,37.75,28.69,2.19,-8.74,-3.16,-3.27,-8.68,-2.98,-3.43,50.34
5423243,65.38,-62.31,138.81,0.09,-0.00,-0.02,0.01,-0.08,0.28,37.75,28.69,2.19,-8.67,-3.08,-3.13,-8.68,-2.99,-3.42,50.44
5423272,65.31,-62.31,138.69,-0.13,-0.04,-0.05,-0.05,-0.09,0.27,38.19,28.25,1.69,-8.78,-3.06,-3.18,-8.68,-3.00,-3.41,50.42
5423297,65.00,-62.38,138.62,-0.17,-0.06,-0.05,-0.08,-0.08,0.13,38.19,28.25,1.69,-8.78,-3.08,-3.27,-8.69,-2.99,-3.41,50.30
5423326,64.62,-62.38,138.69,-0.18,-0.06,-0.04,-0.02,-0.08,0.11,37.38,28.19,2.19,-8.72,-3.07,-3.28,-8.69,-2.99,-3.40,50.30
5423355,64.25,-62.44,138.75,-0.18,-0.05,-0.03,0.23,-0.01,0.12,37.38,28.19,2.19,-8.45,-3.00,-3.27,-8.69,-2.98,-3.40,50.23
5423384,64.00,-62.44,138.81,-0.14,-0.03,-0.02,0.30,0.00,0.02,37.75,28.56,1.69,-8.39,-2.97,-3.38,-8.69,-2.97,-3.41,50.33
5423413,63.69,-62.50,138.94,-0.11,-0.04,-0.01,0.15,0.00,-0.02,37.75,28.56,1.69,-8.65,-2.96,-3.46,-8.70,-2.96,-3.41,50.28
5423444,63.50,-62.56,138.94,-0.10,-0.06,-0.02,-0.25,0.09,-0.08,37.75,28.56,1.69,-8.95,-2.86,-3.49,-8.70,-2.96,-3.40,50.27
5423473,63.25,-62.62,138.94,-0.09,-0.08,-0.02,-0.16,0.11,0.02,37.00,29.00,1.69,-8.87,-2.85,-3.38,-8.71,-2.95,-3.39,50.18
5423503,63.00,-62.69,138.88,-0.07,-0.07,-0.02,0.00,0.12,0.15,37.00,29.00,1.69,-8.71,-2.83,-3.22,-8.71,-2.95,-3.38,50.20
5423534,62.88,-62.75,138.75,-0.05,-0.04,-0.02,0.15,0.12,0.19,37.38,28.19,1.69,-8.56,-2.83,-3.17,-8.72,-2.95,-3.37,50.13
5423563,62.75,-62.75,138.75,-0.05,0.00,-0.03,0.24,0.16,0.20,38.50,28.56,2.56,-8.38,-2.72,-3.22,-8.72,-2.95,-3.37,50.20
5423594,62.69,-62.69,138.81,-0.07,0.03,-0.05,0.01,0.12,-0.04,38.50,28.56,2.56,-8.70,-2.83,-3.43,-8.71,-2.95,-3.38,50.20
5423622,62.69,-62.62,138.81,-0.01,0.01,-0.05,-0.07,0.01,-0.11,36.69,28.19,0.88,-8.88,-2.99,-3.46,-8.70,-2.96,-3.39,50.16
5423648,62.75,-62.56,138.69,-0.01,-0.02,-0.04,-0.18,-0.11,-0.10,36.69,28.19,0.88,-8.89,-3.09,-3.49,-8.70,-2.97,-3.38,50.10
5423677,62.75,-62.62,138.56,-0.04,-0.05,-0.03,-0.17,-0.11,-0.09,37.38,28.56,3.00,-8.88,-3.10,-3.47,-8.70,-2.98,-3.38,50.20
5423706,62.56,-62.69,138.50,-0.06,-0.07,-0.01,0.00,-0.05,0.04,37.38,28.56,3.00,-8.71,-3.03,-3.32,-8.71,-2.98,-3.36,50.21
5423736,62.44,-62.75,138.44,-0.12,-0.07,-0.00,0.25,0.08,0.10,37.38,28.56,1.25,-8.46,-2.89,-3.25,-8.72,-2.97,-3.35,50.22
5423765,62.06,-62.81,138.56,-0.09,-0.06,0.02,0.17,0.17,0.10,37.75,29.00,1.69,-8.55,-2.78,-3.24,-8.72,-2.95,-3.35,50.29
5423795,61.81,-62.94,138.56,-0.02,-0.06,0.04,0.03,0.17,0.03,37.75,29.00,1.69,-8.70,-2.76,-3.30,-8.73,-2.94,-3.34,50.29
5423824,61.69,-63.06,138.56,0.01,-0.06,0.03,-0.07,0.17,0.02,37.00,28.19,2.19,-8.82,-2.80,-3.28,-8.74,-2.93,-3.32,50.19
5423854,61.62,-63.19,138.50,0.04,-0.06,0.02,0.04,0.13,0.15,37.00,28.19,2.19,-8.70,-2.78,-3.15,-8.75,-2.92,-3.30,50.15
5423884,61.62,-63.25,138.31,0.02,-0.06,-0.01,-0.05,0.21,0.21,37.75,28.56,1.25,-8.81,-2.71,-3.07,-8.76,-2.92,-3.28,50.15
5423913,61.62,-63.38,138.12,0.00,-0.06,-0.04,0.00,0.19,0.25,37.75,29.00,0.88,-8.80,-2.75,-3.06,-8.76,-2.93,-3.26,50.17
5423944,61.62,-63.38,137.88,0.01,-0.05,-0.05,0.03,0.10,0.15,37.75,29.00,0.88,-8.73,-2.84,-3.09,-8.76,-2.94,-3.25,50.15
5423973,61.75,-63.38,137.62,0.01,-0.02,-0.07,0.11,0.02,0.12,37.00,29.25,0.88,-8.67,-2.96,-3.14,-8.76,-2.96,-3.24,50.22
5424004,61.81,-63.31,137.38,-0.04,-0.02,-0.09,-0.10,-0.08,-0.04,37.00,29.25,0.88,-8.93,-3.08,-3.30,-8.76,-2.98,-3.24,50.18
5424034,61.88,-63.25,137.19,-0.02,-0.03,-0.07,-0.16,-0.13,-0.07,37.75,28.56,1.25,-8.91,-3.13,-3.30,-8.75,-3.00,-3.23,50.16
5424064,61.88,-63.19,137.00,-0.03,-0.04,-0.05,-0.10,-0.09,-0.03,37.38,29.00,1.25,-8.83,-3.10,-3.24,-8.75,-3.01,-3.22,50.19
5424094,61.88,-63.25,136.81,-0.00,-0.05,-0.02,-0.09,0.00,0.07,37.38,29.00,1.25,-8.85,-3.01,-3.14,-8.75,-3.01,-3.21,50.16
5424125,61.88,-63.31,136.69,0.04,-0.05,0.01,0.11,0.05,0.16,37.38,29.25,0.38,-8.64,-2.97,-3.03,-8.76,-3.02,-3.19,50.20
5424155,61.94,-63.31,136.50,0.08,-0.03,-0.01,-0.07,0.11,0.13,37.38,29.25,0.38,-8.83,-2.91,-3.04,-8.76,-3.02,-3.18,50.28
5424185,62.12,-63.38,136.25,0.10,-0.02,-0.04,-0.13,0.18,0.15,37.38,29.00,2.56,-8.90,-2.85,-3.01,-8.76,-3.03,-3.16,50.31
5424214,62.31,-63.38,135.94,0.01,-0.02,-0.09,-0.13,0.12,0.10,37.00,28.56,1.25,-8.90,-2.93,-3.05,-8.76,-3.06,-3.15,50.31
5424245,62.38,-63.25,135.69,-0.07,-0.01,-0.15,-0.13,0.15,0.08,37.00,28.56,1.25,-8.88,-2.93,-3.06,-8.75,-3.08,-3.15,50.24
5424274,62.44,-63.06,135.44,-0.11,0.01,-0.18,-0.03,0.20,0.09,37.00,29.25,1.69,-8.74,-2.96,-3.05,-8.73,-3.12,-3.16,50.22
5424305,62.50,-62.81,135.31,-0.08,0.05,-0.16,0.16,0.06,0.06,37.00,29.25,1.69,-8.55,-3.09,-3.12,-8.72,-3.15,-3.18,50.25
5424335,62.81,-62.62,135.19,0.13,0.10,-0.05,0.32,-0.04,-0.02,37.00,29.25,1.25,-8.37,-3.22,-3.22,-8.70,-3.17,-3.20,50.27
5424365,63.31,-62.44,135.12,0.19,0.11,-0.01,0.11,-0.25,-0.15,36.69,29.00,1.69,-8.58,-3.45,-3.36,-8.69,-3.19,-3.21,50.21
5424395,63.81,-62.38,135.06,0.21,0.09,0.05,-0.15,-0.34,-0.32,36.69,29.00,1.69,-8.84,-3.55,-3.53,-8.69,-3.20,-3.21,50.18
5424424,64.12,-62.38,135.00,0.16,0.02,0.06,-0.24,-0.43,-0.27,36.69,30.00,0.88,-8.93,-3.64,-3.48,-8.69,-3.20,-3.20,50.20
5424455,64.25,-62.50,134.88,0.05,-0.04,0.05,-0.08,-0.29,0.00,36.69,30.00,0.88,-8.78,-3.49,-3.18,-8.70,-3.20,-3.19,50.20
5424485,64.06,-62.56,134.88,-0.11,-0.06,0.00,0.02,-0.01,0.22,36.69,29.56,1.25,-8.67,-3.21,-2.95,-8.70,-3.19,-3.18,50.28
5424514,63.75,-62.62,134.94,-0.17,-0.04,-0.03,0.03,0.11,0.26,36.38,30.38,0.00,-8.67,-3.07,-2.92,-8.70,-3.18,-3.18,50.20
5424545,63.44,-62.62,135.06,-0.17,-0.03,-0.04,-0.08,0.17,0.16,36.38,30.38,0.00,-8.79,-3.00,-3.03,-8.70,-3.18,-3.19,50.29
5424574,63.06,-62.62,135.19,-0.16,-0.01,-0.04,-0.08,0.24,0.07,36.69,29.56,0.88,-8.78,-2.98,-3.16,-8.70,-3.17,-3.20,50.22
5424605,62.75,-62.56,135.44,-0.15,0.02,-0.03,0.00,0.09,-0.09,36.69,29.56,0.88,-8.71,-3.07,-3.31,-8.70,-3.16,-3.22,50.20
5424635,62.50,-62.56,135.62,-0.13,0.01,-0.02,0.13,0.05,-0.17,36.69,30.38,1.25,-8.56,-3.09,-3.40,-8.70,-3.15,-3.23,50.15
5424664,62.25,-62.50,135.81,-0.10,-0.00,-0.01,0.20,0.08,-0.16,36.38,30.00,1.25,-8.49,-3.05,-3.40,-8.70,-3.14,-3.24,50.19
5424695,62.06,-62.50,136.00,-0.06,-0.02,0.00,0.13,0.12,-0.08,36.38,30.00,1.25,-8.56,-3.01,-3.33,-8.70,-3.13,-3.25,50.22
5424725,62.00,-62.56,136.00,-0.00,-0.03,0.01,0.04,0.22,0.10,36.38,29.25,2.56,-8.66,-2.90,-3.14,-8.70,-3.13,-3.24,50.31
5424755,61.94,-62.62,135.94,0.03,-0.03,0.00,-0.09,0.16,0.11,36.38,29.25,2.56,-8.80,-2.96,-3.11,-8.71,-3.13,-3.23,50.18
5424785,62.06,-62.69,135.75,0.09,-0.02,-0.01,-0.11,0.03,0.05,37.38,29.56,1.69,-8.83,-3.10,-3.16,-8.71,-3.13,-3.21,50.21
5424815,62.25,-62.69,135.56,0.09,-0.01,-0.01,-0.20,-0.10,0.00,36.69,29.00,0.38,-8.91,-3.25,-3.19,-8.71,-3.15,-3.20,50.23
5424845,62.50,-62.69,135.31,0.08,-0.00,-0.01,-0.02,-0.21,0.07,36.69,29.00,0.38,-8.73,-3.38,-3.12,-8.71,-3.16,-3.19,50.28
5424875,62.69,-62.62,135.19,0.05,-0.01,-0.01,0.12,-0.18,0.12,36.38,29.00,0.00,-8.57,-3.31,-3.05,-8.71,-3.17,-3.19,50.23
5424905,62.69,-62.69,135.12,-0.03,-0.02,0.00,0.15,-0.02,0.05,36.38,29.00,0.00,-8.55,-3.20,-3.13,-8.71,-3.17,-3.18,50.16
5424935,62.56,-62.69,135.12,-0.04,-0.03,-0.00,0.06,0.01,0.02,36.69,29.56,0.88,-8.65,-3.15,-3.16,-8.71,-3.16,-3.18,50.15
5424965,62.44,-62.75,135.12,-0.04,-0.04,-0.01,0.06,0.13,0.09,37.00,29.56,2.19,-8.65,-3.03,-3.08,-8.72,-3.16,-3.17,50.17
5424995,62.31,-62.75,135.06,-0.02,-0.03,-0.00,0.10,0.06,-0.03,37.00,29.56,2.19,-8.62,-3.09,-3.20,-8.72,-3.16,-3.17,50.26
5425024,62.31,-62.81,135.00,0.03,-0.03,0.01,0.01,0.00,-0.06,36.00,30.00,0.88,-8.77,-3.15,-3.23,-8.72,-3.16,-3.16,50.25
5425055,62.38,-62.88,134.88,0.04,-0.04,0.02,0.10,0.09,0.03,36.00,30.00,0.88,-8.62,-3.06,-3.11,-8.73,-3.16,-3.15,50.21
5425086,62.38,-62.94,134.75,0.04,-0.05,0.01,0.02,0.05,0.00,37.00,29.25,-0.50,-8.71,-3.11,-3.13,-8.73,-3.16,-3.13,50.14
5425115,62.44,-63.00,134.56,0.08,-0.07,0.01,0.07,0.05,0.10,36.69,29.56,0.88,-8.66,-3.11,-3.00,-8.74,-3.16,-3.11,50.22
5425146,62.50,-63.06,134.31,0.03,-0.05,-0.02,0.09,0.05,0.08,36.69,29.56,0.88,-8.65,-3.11,-3.01,-8.74,-3.17,-3.09,50.27
5425176,62.56,-63.12,134.06,0.02,-0.04,-0.03,0.00,-0.05,0.06,36.38,29.25,0.00,-8.74,-3.23,-3.01,-8.74,-3.18,-3.08,50.23
5425206,62.62,-63.06,133.94,-0.02,-0.03,-0.04,-0.03,-0.14,0.02,36.38,29.25,0.00,-8.78,-3.34,-3.04,-8.74,-3.19,-3.07,50.21
5425236,62.56,-63.12,133.81,-0.07,-0.05,-0.01,-0.04,-0.20,0.00,37.00,29.00,1.25,-8.78,-3.39,-3.07,-8.74,-3.19,-3.06,50.16
5425265,62.38,-63.12,133.75,-0.08,-0.06,0.01,-0.01,-0.24,0.00,37.38,29.56,1.25,-8.76,-3.44,-3.06,-8.75,-3.19,-3.06,50.16
5425296,62.19,-63.25,133.81,-0.08,-0.05,0.05,0.00,-0.26,0.05,37.38,29.56,1.25,-8.77,-3.44,-3.00,-8.76,-3.17,-3.05,50.25
5425325,61.88,-63.31,133.94,-0.07,-0.03,0.08,0.11,-0.16,0.06,36.69,30.00,0.88,-8.65,-3.32,-2.98,-8.76,-3.15,-3.05,50.23
5425356,61.62,-63.44,134.19,-0.09,-0.00,0.08,-0.11,0.06,0.11,36.69,30.00,0.88,-8.89,-3.05,-2.93,-8.77,-3.12,-3.05,50.21
5425387,61.25,-63.50,134.56,-0.11,-0.01,0.05,-0.03,0.20,0.08,36.00,29.00,1.25,-8.81,-2.89,-2.98,-8.78,-3.10,-3.06,50.23
5425416,60.94,-63.56,134.81,-0.09,0.00,0.00,-0.04,0.29,-0.01,36.69,29.00,0.88,-8.82,-2.78,-3.09,-8.78,-3.08,-3.07,50.23
5425446,60.81,-63.56,134.94,-0.02,0.01,-0.04,-0.02,0.34,0.03,36.69,29.00,0.88,-8.80,-2.73,-3.04,-8.78,-3.08,-3.08,50.22
5425476,60.75,-63.56,135.00,-0.02,0.01,-0.08,-0.05,0.30,0.07,36.69,29.00,1.25,-8.83,-2.77,-3.00,-8.78,-3.08,-3.08,50.18
5425506,60.81,-63.50,134.88,0.04,-0.00,-0.08,0.14,0.17,0.06,36.69,29.00,1.25,-8.63,-2.92,-3.01,-8.77,-3.10,-3.08,50.09
5425536,61.06,-63.44,134.62,0.10,0.02,-0.04,0.23,-0.06,0.05,36.38,29.56,-0.50,-8.53,-3.19,-3.02,-8.77,-3.12,-3.07,50.09
5425566,61.31,-63.38,134.50,0.11,0.04,-0.00,0.09,-0.21,0.02,37.00,29.25,0.88,-8.67,-3.34,-3.04,-8.76,-3.13,-3.07,50.09
5425596,61.50,-63.38,134.50,0.03,0.04,0.05,-0.08,-0.30,0.01,37.00,29.25,0.88,-8.84,-3.43,-3.06,-8.76,-3.13,-3.08,50.21
5425626,61.50,-63.38,134.62,-0.03,0.02,0.09,0.09,-0.20,0.03,37.00,29.56,0.38,-8.67,-3.32,-3.05,-8.77,-3.11,-3.08,50.17
5425656,61.25,-63.44,134.94,-0.08,0.01,0.08,0.03,-0.17,0.02,37.00,29.56,0.38,-8.73,-3.26,-3.06,-8.77,-3.09,-3.09,50.08
5425686,60.88,-63.50,135.25,-0.13,0.01,0.08,0.06,-0.12,0.06,37.00,29.56,0.88,-8.71,-3.18,-3.04,-8.78,-3.06,-3.10,50.05
5425716,60.50,-63.62,135.69,-0.15,0.01,0.08,0.03,-0.06,0.08,38.19,28.56,1.25,-8.75,-3.09,-3.03,-8.78,-3.03,-3.12,50.17
5425746,60.00,-63.69,136.12,-0.14,0.01,0.09,0.03,0.00,0.01,38.19,28.56,1.25,-8.76,-3.00,-3.12,-8.79,-2.99,-3.13,50.17
5425775,59.62,-63.81,136.56,-0.11,0.01,0.09,0.00,0.03,0.00,37.38,29.25,1.69,-8.88,-2.91,-3.18,-8.80,-2.96,-3.14,50.22
5425806,59.25,-63.88,136.94,-0.05,0.02,0.10,-0.08,0.06,-0.06,37.38,29.25,1.69,-8.89,-2.86,-3.21,-8.81,-2.92,-3.15,50.24
5425836,59.00,-64.00,137.38,-0.02,0.02,0.11,-0.04,0.05,-0.07,38.50,29.56,1.25,-8.86,-2.84,-3.23,-8.81,-2.89,-3.16,50.24
5425866,58.81,-64.06,137.69,0.01,0.02,0.10,0.03,0.06,0.10,38.06,29.56,1.69,-8.78,-2.80,-3.06,-8.82,-2.87,-3.16,50.23
5425896,58.69,-64.19,138.00,0.00,0.02,0.08,0.09,0.06,0.15,38.06,29.56,1.69,-8.73,-2.77,-3.02,-8.83,-2.84,-3.17,50.21
5425925,58.56,-64.25,138.19,-0.01,0.03,0.07,0.02,0.04,0.20,37.69,29.25,1.69,-8.85,-2.79,-3.01,-8.83,-2.82,-3.17,50.27
5425956,58.44,-64.25,138.50,-0.06,0.07,0.07,-0.05,0.02,0.21,37.69,29.25,1.69,-8.89,-2.77,-2.97,-8.83,-2.80,-3.19,50.18
5425987,58.19,-64.25,139.00,-0.09,0.11,0.09,-0.02,0.06,0.19,38.06,28.56,1.69,-8.86,-2.71,-3.02,-8.83,-2.77,-3.21,50.17
5426016,57.94,-64.25,139.62,-0.01,0.14,0.15,0.11,0.04,0.07,37.69,28.19,1.69,-8.71,-2.69,-3.17,-8.83,-2.74,-3.25,50.09
5426046,57.75,-64.25,140.38,0.02,0.14,0.18,0.19,-0.01,-0.07,37.69,28.19,1.69,-8.64,-2.71,-3.37,-8.83,-2.69,-3.29,50.18
5426076,57.62,-64.25,141.12,0.03,0.13,0.19,0.08,-0.14,-0.25,38.38,28.19,2.56,-8.75,-2.79,-3.57,-8.83,-2.65,-3.32,50.24
5426107,57.50,-64.31,141.75,0.07,0.08,0.17,-0.08,-0.22,-0.23,38.38,28.19,2.56,-8.92,-2.84,-3.57,-8.84,-2.61,-3.34,50.12
5426137,57.44,-64.38,142.25,-0.04,0.03,0.12,0.00,-0.15,-0.09,37.69,27.50,3.06,-8.84,-2.73,-3.45,-8.84,-2.58,-3.35,50.06
5426168,57.00,-64.44,142.75,-0.09,0.00,0.07,0.05,-0.04,0.13,38.19,27.75,1.69,-8.79,-2.59,-3.22,-8.84,-2.55,-3.36,50.08
5426198,56.75,-64.50,143.06,-0.08,0.00,0.04,0.05,0.05,0.20,38.19,27.75,1.69,-8.79,-2.47,-3.16,-8.85,-2.53,-3.37,50.08
5426228,56.56,-64.50,143.25,-0.04,0.03,0.04,0.05,0.06,0.20,38.38,27.50,2.19,-8.79,-2.44,-3.17,-8.85,-2.51,-3.37,50.12
5426258,56.50,-64.50,143.56,0.03,0.07,0.06,-0.05,0.09,0.12,38.38,27.50,2.19,-8.91,-2.41,-3.27,-8.85,-2.50,-3.39,50.22
5426287,56.56,-64.50,143.75,0.05,0.10,0.08,-0.01,0.08,0.03,38.06,26.69,3.50,-8.87,-2.40,-3.37,-8.85,-2.48,-3.41,50.16
5426317,56.56,-64.44,144.12,0.03,0.12,0.10,0.08,0.11,0.06,38.88,27.50,4.00,-8.76,-2.34,-3.37,-8.84,-2.46,-3.43,50.28
5426347,56.50,-64.38,144.69,0.04,0.12,0.13,0.30,0.07,0.01,38.88,27.50,4.00,-8.54,-2.36,-3.44,-8.84,-2.43,-3.46,50.36
5426377,56.44,-64.31,145.38,0.01,0.11,0.12,0.35,0.00,-0.06,38.88,26.69,1.69,-8.48,-2.41,-3.56,-8.84,-2.40,-3.49,50.37
5426408,56.31,-64.25,145.88,-0.01,0.08,0.10,0.06,-0.09,-0.19,38.88,26.69,1.69,-8.77,-2.47,-3.71,-8.83,-2.38,-3.52,50.32
5426437,56.19,-64.25,146.19,-0.03,0.03,0.08,-0.04,-0.18,-0.22,38.06,26.00,3.00,-8.88,-2.54,-3.76,-8.83,-2.35,-3.53,50.39
5426467,56.00,-64.31,146.50,-0.06,-0.01,0.05,-0.05,-0.18,-0.05,38.88,26.69,4.00,-8.89,-2.52,-3.60,-8.83,-2.34,-3.54,50.34
5426498,55.81,-64.31,146.62,-0.09,-0.01,0.03,-0.15,-0.02,0.14,38.88,26.69,4.00,-8.99,-2.34,-3.39,-8.84,-2.32,-3.54,50.32
5426528,55.38,-64.38,146.94,-0.16,-0.01,0.00,-0.12,0.12,0.23,38.50,27.50,4.00,-8.96,-2.18,-3.31,-8.84,-2.30,-3.55,50.27
5426558,55.12,-64.38,147.06,-0.18,-0.00,-0.06,0.02,0.17,0.18,38.50,27.50,4.00,-8.82,-2.11,-3.37,-8.84,-2.29,-3.56,50.22
5426588,54.69,-64.31,147.19,-0.16,0.01,-0.11,0.02,0.23,-0.03,39.19,26.69,3.50,-8.81,-2.06,-3.60,-8.83,-2.30,-3.57,50.21
5426618,54.62,-64.25,147.06,-0.10,-0.00,-0.17,0.19,0.18,-0.12,39.19,26.25,3.00,-8.63,-2.13,-3.70,-8.82,-2.32,-3.57,50.18
5426648,54.75,-64.00,146.62,-0.05,-0.01,-0.19,0.07,0.15,-0.18,39.19,26.25,3.00,-8.74,-2.20,-3.77,-8.81,-2.35,-3.58,50.26
5426677,54.94,-63.88,146.31,-0.02,-0.03,-0.18,-0.06,0.17,-0.13,39.19,27.06,4.38,-8.87,-2.22,-3.72,-8.80,-2.40,-3.58,50.16
5426707,55.12,-63.81,145.88,0.03,-0.05,-0.13,0.07,0.17,0.04,39.19,27.06,4.38,-8.72,-2.25,-3.52,-8.80,-2.43,-3.57,50.12
5426738,55.38,-63.75,145.44,0.13,-0.02,-0.05,0.55,0.00,0.20,38.38,27.75,4.38,-8.24,-2.47,-3.35,-8.79,-2.46,-3.55,50.07
5426768,55.94,-63.75,145.06,0.16,0.04,0.02,0.49,-0.29,0.05,38.75,27.06,3.50,-8.30,-2.77,-3.50,-8.79,-2.48,-3.55,50.08
5426798,56.06,-63.75,145.06,0.08,0.04,0.09,0.24,-0.53,-0.18,38.75,27.06,3.50,-8.55,-3.00,-3.74,-8.79,-2.47,-3.55,50.04
5426824,56.00,-63.88,145.44,0.02,-0.00,0.13,-0.10,-0.72,-0.34,38.38,27.50,3.00,-8.90,-3.17,-3.89,-8.80,-2.44,-3.55,50.10
5426851,55.81,-64.00,145.62,-0.02,-0.05,0.14,-0.18,-0.43,-0.17,38.38,27.50,3.00,-9.00,-2.84,-3.72,-8.81,-2.41,-3.54,50.16
5426878,55.31,-64.19,145.94,-0.16,-0.11,0.09,-0.22,-0.16,0.03,38.06,27.50,4.00,-9.05,-2.54,-3.49,-8.83,-2.37,-3.52,50.06
5426908,54.69,-64.44,146.25,-0.19,-0.12,0.04,-0.10,0.13,0.21,38.06,27.50,4.00,-8.95,-2.21,-3.30,-8.84,-2.34,-3.51,50.05
5426938,54.38,-64.56,146.25,-0.13,-0.10,-0.02,0.02,0.35,0.38,38.75,25.56,3.00,-8.83,-1.98,-3.11,-8.85,-2.33,-3.49,50.07
5426968,54.12,-64.62,146.12,-0.07,-0.03,-0.07,-0.01,0.46,0.44,39.19,27.06,4.00,-8.87,-1.87,-3.04,-8.86,-2.33,-3.49,50.16
5426998,53.94,-64.62,146.06,-0.07,0.03,-0.10,-0.05,0.49,0.35,39.19,27.06,4.00,-8.91,-1.84,-3.13,-8.86,-2.33,-3.48,50.29
5427028,53.75,-64.62,146.19,-0.08,0.08,-0.11,0.06,0.46,0.19,38.75,26.25,3.00,-8.79,-1.87,-3.29,-8.86,-2.33,-3.49,50.21
5427058,53.88,-64.44,146.19,-0.01,0.10,-0.09,0.23,0.34,-0.16,38.75,26.25,3.00,-8.60,-2.00,-3.68,-8.84,-2.35,-3.52,50.19
5427089,54.19,-64.12,146.06,0.06,0.09,-0.08,0.29,0.11,-0.46,38.75,26.69,4.38,-8.53,-2.27,-4.01,-8.82,-2.38,-3.54,50.23
5427119,54.62,-64.00,145.81,0.17,0.04,-0.03,0.26,-0.31,-0.48,39.19,26.69,4.38,-8.55,-2.72,-4.03,-8.81,-2.41,-3.54,50.20
5427146,55.06,-64.06,145.56,0.20,-0.02,0.06,0.14,-0.69,-0.27,39.19,26.69,4.38,-8.67,-3.11,-3.80,-8.82,-2.42,-3.53,50.23
5427177,55.19,-64.19,145.50,0.16,-0.05,0.12,0.10,-0.77,0.00,38.06,27.06,4.88,-8.72,-3.18,-3.50,-8.83,-2.40,-3.51,50.17
5427208,55.12,-64.38,145.62,-0.05,-0.05,0.13,-0.17,-0.48,0.23,38.06,27.06,4.88,-9.02,-2.86,-3.26,-8.84,-2.37,-3.49,50.24
5427239,54.44,-64.62,146.25,-0.18,-0.04,0.09,-0.14,-0.14,0.33,38.38,27.75,3.00,-9.01,-2.47,-3.16,-8.86,-2.33,-3.49,50.22
5427269,53.88,-64.69,146.69,-0.19,-0.02,0.03,0.10,0.15,0.43,38.75,27.06,4.00,-8.76,-2.14,-3.05,-8.86,-2.29,-3.49,50.17
5427299,53.56,-64.62,146.94,-0.14,0.05,-0.03,0.16,0.31,0.37,38.75,27.06,4.00,-8.69,-1.97,-3.14,-8.86,-2.28,-3.51,50.14
5427330,53.38,-64.50,147.19,-0.12,0.10,-0.06,0.07,0.32,0.24,38.75,26.25,3.00,-8.78,-1.95,-3.29,-8.85,-2.28,-3.54,50.10
5427360,53.12,-64.31,147.50,-0.16,0.12,-0.04,0.03,0.30,-0.03,38.75,26.25,3.00,-8.80,-1.97,-3.61,-8.83,-2.27,-3.58,50.17
5427393,52.94,-64.12,147.94,-0.08,0.11,0.02,0.12,0.29,-0.26,38.75,27.06,4.38,-8.70,-1.97,-3.88,-8.82,-2.26,-3.62,50.21
5427418,52.88,-64.06,148.31,0.01,0.11,0.07,0.15,0.23,-0.43,38.38,27.50,3.50,-8.66,-2.01,-4.08,-8.81,-2.25,-3.65,50.18
5427449,52.94,-64.00,148.62,0.13,0.07,0.11,0.07,-0.26,-0.48,38.38,27.50,3.50,-8.73,-2.49,-4.14,-8.81,-2.23,-3.66,50.26
5427476,53.19,-64.06,148.81,0.23,0.04,0.18,-0.07,-0.59,-0.26,38.38,27.06,6.56,-8.89,-2.81,-3.93,-8.82,-2.21,-3.66,50.30
5427502,53.25,-64.19,149.00,0.09,0.00,0.20,0.01,-0.65,0.06,38.38,27.06,6.56,-8.81,-2.83,-3.59,-8.83,-2.18,-3.65,50.23
5427530,53.00,-64.38,149.56,-0.04,-0.01,0.20,0.13,-0.48,0.13,38.19,26.00,5.25,-8.67,-2.52,-3.47,-8.84,-2.12,-3.65,50.21
5427559,52.44,-64.50,150.25,-0.13,-0.02,0.16,0.18,-0.30,0.19,38.19,26.00,5.25,-8.67,-2.39,-3.46,-8.85,-2.08,-3.65,50.12
5427585,51.94,-64.62,150.75,-0.12,-0.01,0.09,0.21,-0.04,0.23,39.69,25.56,4.88,-8.65,-2.09,-3.43,-8.86,-2.04,-3.66,50.10
5427616,51.69,-64.69,151.00,-0.10,-0.01,0.06,0.17,0.08,0.25,39.69,25.56,4.88,-8.68,-1.91,-3.44,-8.86,-2.01,-3.66,50.08
5427642,51.38,-64.75,151.31,-0.08,-0.02,0.05,0.06,0.14,0.07,39.69,26.00,4.88,-8.80,-1.85,-3.59,-8.87,-1.99,-3.66,50.08
5427671,51.06,-64.81,151.56,-0.09,-0.01,0.05,0.03,0.14,0.02,39.69,26.69,5.69,-8.84,-1.83,-3.64,-8.87,-1.98,-3.66,50.02
5427704,50.69,-64.88,152.00,-0.12,0.01,0.06,-0.04,0.19,-0.05,39.69,26.69,5.69,-8.92,-1.75,-3.73,-8.87,-1.95,-3.67,50.01
5427730,50.25,-64.88,152.50,-0.08,0.03,0.09,0.23,0.21,0.02,39.69,25.56,4.88,-8.59,-1.71,-3.70,-8.88,-1.90,-3.69,50.04
5427761,50.06,-64.94,152.88,0.02,0.00,0.09,0.40,0.02,-0.16,39.69,25.56,4.88,-8.47,-1.86,-3.85,-8.88,-1.88,-3.69,50.02
5427787,50.25,-65.06,152.94,0.21,-0.00,0.11,0.25,-0.21,-0.28,39.69,25.19,6.19,-8.63,-2.09,-3.96,-8.89,-1.87,-3.68,50.04
5427817,50.69,-65.12,152.88,0.40,0.00,0.16,0.13,-0.35,-0.26,40.75,24.50,4.88,-8.82,-2.22,-3.94,-8.90,-1.88,-3.66,50.04
5427848,51.56,-65.19,152.56,0.44,-0.04,0.13,0.07,-0.38,-0.16,40.75,24.50,4.88,-8.82,-2.28,-3.80,-8.90,-1.89,-3.63,50.03
5427879,52.25,-65.31,152.06,0.14,-0.10,0.00,0.09,-0.16,0.05,39.69,24.56,5.25,-8.82,-2.08,-3.54,-8.91,-1.92,-3.60,49.98
5427909,52.12,-65.50,151.62,-0.23,-0.15,-0.10,-0.11,-0.03,0.04,39.69,24.56,5.25,-9.03,-1.96,-3.53,-8.92,-1.92,-3.57,50.09
5427939,51.75,-65.56,151.50,-0.25,-0.17,-0.12,-0.23,0.17,0.02,39.69,25.19,3.50,-9.17,-1.75,-3.52,-8.93,-1.93,-3.54,50.11
5427970,51.19,-65.75,151.12,-0.20,-0.15,-0.12,-0.05,0.46,0.15,40.38,24.56,4.00,-9.00,-1.47,-3.36,-8.94,-1.93,-3.52,50.08
5428003,51.00,-65.88,150.75,-0.10,-0.11,-0.13,0.29,0.56,0.29,40.38,24.56,4.00,-8.65,-1.39,-3.20,-8.95,-1.95,-3.49,50.11
5428031,51.00,-65.88,150.25,-0.08,-0.06,-0.16,0.24,0.34,0.20,39.25,25.69,4.00,-8.72,-1.78,-3.31,-8.94,-2.00,-3.47,50.10
5428060,51.12,-65.75,149.75,-0.02,-0.02,-0.15,0.28,-0.19,-0.02,39.25,25.69,4.00,-8.65,-2.21,-3.49,-8.94,-2.02,-3.47,50.09
5428088,51.38,-65.62,149.38,0.05,0.03,-0.08,0.12,-0.53,-0.28,39.25,25.69,4.88,-8.80,-2.58,-3.76,-8.93,-2.05,-3.47,50.08
5428119,51.50,-65.56,149.31,0.00,0.05,-0.00,-0.12,-0.71,-0.49,40.00,26.38,4.00,-9.05,-2.77,-3.97,-8.93,-2.06,-3.48,50.05
5428145,51.38,-65.56,149.50,-0.08,0.01,0.02,-0.09,-0.39,-0.38,40.00,26.38,4.00,-9.01,-2.44,-3.88,-8.92,-2.05,-3.49,50.13
5428172,51.19,-65.56,149.62,-0.11,-0.04,0.02,0.03,0.03,-0.02,39.25,26.75,5.25,-8.90,-1.99,-3.51,-8.93,-2.03,-3.49,50.02
5428200,50.88,-65.69,149.69,-0.12,-0.10,0.00,0.03,0.26,0.10,39.25,26.75,5.25,-8.86,-1.57,-3.19,-8.94,-2.02,-3.47,50.06
5428229,50.50,-65.88,149.62,-0.13,-0.12,-0.02,0.17,0.51,0.31,39.69,25.69,4.38,-8.77,-1.50,-3.13,-8.95,-2.02,-3.45,50.04
5428259,50.31,-66.00,149.56,-0.08,-0.07,-0.03,0.24,0.60,0.31,39.69,25.69,4.38,-8.71,-1.41,-3.12,-8.95,-2.01,-3.43,49.96
5428289,50.12,-66.06,149.62,0.00,0.01,-0.03,0.07,0.44,0.05,39.25,25.69,3.50,-8.88,-1.56,-3.37,-8.96,-2.00,-3.43,50.00
5428320,50.25,-66.00,149.56,0.04,0.07,-0.05,-0.03,0.26,-0.10,40.00,25.69,3.50,-8.99,-1.75,-3.54,-8.95,-2.01,-3.44,50.09
5428348,50.56,-65.81,149.44,0.10,0.09,-0.07,0.01,-0.08,-0.22,40.00,25.69,3.50,-8.93,-2.12,-3.68,-8.94,-2.04,-3.45,50.15
5428374,51.00,-65.62,149.19,0.13,0.07,-0.05,0.09,-0.37,-0.19,39.25,26.25,4.38,-8.84,-2.43,-3.66,-8.93,-2.06,-3.47,50.25
5428401,51.31,-65.56,149.00,0.14,0.05,-0.02,0.08,-0.47,-0.20,39.25,26.25,4.38,-8.88,-2.55,-3.65,-8.92,-2.08,-3.47,50.17
5428429,51.56,-65.56,148.88,0.08,0.01,0.03,-0.05,-0.38,-0.24,38.88,26.00,4.00,-8.98,-2.48,-3.71,-8.92,-2.09,-3.47,50.12
5428460,51.62,-65.56,148.88,0.05,-0.03,0.08,-0.11,-0.19,-0.18,38.88,26.00,4.00,-9.04,-2.29,-3.65,-8.92,-2.09,-3.47,50.03
5428488,51.69,-65.69,149.00,0.10,-0.03,0.10,0.02,0.00,0.07,39.69,26.25,4.88,-8.90,-2.07,-3.38,-8.93,-2.07,-3.45,50.06
5428515,51.69,-65.81,149.06,0.03,-0.03,0.06,0.16,0.19,0.27,38.50,26.00,4.88,-8.78,-1.87,-3.16,-8.94,-2.06,-3.44,50.04
5428546,51.62,-65.88,149.06,-0.00,-0.04,0.01,0.23,0.21,0.29,38.50,26.00,4.88,-8.68,-1.82,-3.10,-8.95,-2.05,-3.43,50.00
5428575,51.56,-65.88,148.94,-0.06,-0.04,-0.05,0.30,0.18,0.26,40.00,25.19,2.56,-8.65,-1.87,-3.16,-8.95,-2.06,-3.42,49.97
5428601,51.50,-65.88,148.81,-0.03,-0.02,-0.06,0.25,0.06,0.16,40.00,25.19,2.56,-8.71,-2.02,-3.31,-8.95,-2.07,-3.42,50.04
5428629,51.56,-65.88,148.69,0.00,0.01,-0.04,0.15,-0.03,0.00,39.25,26.06,5.25,-8.79,-2.11,-3.42,-8.95,-2.08,-3.42,50.11
5428664,51.69,-65.75,148.56,0.00,0.01,-0.03,0.03,-0.14,-0.17,39.69,26.25,4.88,-8.91,-2.24,-3.60,-8.94,-2.09,-3.42,50.04
5428695,51.75,-65.75,148.50,0.03,0.01,-0.01,-0.02,-0.19,-0.17,39.69,26.25,4.88,-8.96,-2.29,-3.61,-8.94,-2.10,-3.43,50.02
5428723,51.88,-65.75,148.38,0.09,-0.00,0.02,-0.08,-0.14,-0.12,39.25,26.00,4.88,-9.02,-2.25,-3.55,-8.94,-2.10,-3.42,49.96
5428753,52.12,-65.75,148.31,0.13,-0.01,0.05,-0.03,-0.07,0.03,39.25,26.00,4.88,-8.98,-2.18,-3.38,-8.94,-2.10,-3.42,49.97
5428781,52.31,-65.81,148.25,0.12,-0.02,0.05,0.14,-0.02,0.11,39.69,26.25,4.00,-8.80,-2.13,-3.29,-8.94,-2.10,-3.41,49.99
5428810,52.50,-65.88,148.19,0.09,-0.01,0.02,0.12,-0.06,0.16,39.69,26.25,4.00,-8.82,-2.17,-3.23,-8.95,-2.11,-3.40,49.99
5428839,52.62,-65.88,148.06,0.08,-0.01,-0.00,0.07,-0.12,0.06,40.38,25.56,3.50,-8.88,-2.24,-3.33,-8.95,-2.12,-3.39,50.05
5428867,52.81,-65.88,147.88,0.06,-0.01,-0.00,0.00,-0.13,0.05,39.69,26.00,3.06,-8.97,-2.27,-3.34,-8.95,-2.12,-3.38,49.99
5428897,52.88,-65.88,147.75,0.03,-0.02,0.02,-0.05,-0.14,0.06,39.69,26.00,3.06,-8.94,-2.22,-3.33,-8.95,-2.13,-3.38,50.00
5428926,52.94,-65.94,147.81,0.03,0.01,0.05,0.05,-0.03,0.04,39.25,25.69,3.50,-8.90,-2.15,-3.33,-8.95,-2.12,-3.38,50.05
5428952,52.94,-65.94,148.00,0.04,0.03,0.05,0.15,0.05,0.00,39.25,25.69,3.50,-8.78,-2.00,-3.38,-8.95,-2.11,-3.38,50.03
5428980,53.00,-65.94,148.12,0.07,0.05,0.04,0.13,0.08,-0.05,39.25,26.38,3.50,-8.82,-2.02,-3.44,-8.95,-2.10,-3.39,49.95
5429009,53.06,-65.94,148.19,0.08,0.02,0.02,0.00,0.00,-0.05,39.25,26.38,3.50,-8.95,-2.10,-3.45,-8.95,-2.10,-3.39,50.00
5429038,53.31,-65.88,148.12,0.11,0.01,0.02,0.03,-0.04,-0.03,40.00,26.38,3.00,-8.92,-2.15,-3.42,-8.95,-2.11,-3.39,50.03
5429067,53.50,-65.94,148.00,0.09,-0.01,0.01,0.04,-0.12,-0.02,40.00,26.06,3.50,-8.90,-2.26,-3.42,-8.95,-2.12,-3.38,49.99
5429098,53.75,-65.94,147.81,0.11,-0.01,0.03,0.00,-0.11,0.04,40.00,26.06,3.50,-8.95,-2.24,-3.33,-8.95,-2.12,-3.38,49.93
5429126,53.94,-65.94,147.75,0.10,-0.00,0.03,0.00,-0.10,0.05,40.00,26.06,4.00,-8.93,-2.20,-3.27,-8.95,-2.13,-3.37,49.93
5429152,54.12,-66.00,147.69,0.08,0.01,0.03,0.15,-0.02,0.14,40.00,26.06,4.00,-8.80,-2.15,-3.22,-8.95,-2.13,-3.36,49.89
5429181,54.31,-66.00,147.56,0.09,0.01,0.01,0.18,-0.02,0.15,39.25,26.38,2.19,-8.77,-2.15,-3.21,-8.95,-2.13,-3.36,49.94
5429210,54.50,-65.94,147.44,0.08,0.03,-0.00,0.20,-0.07,0.09,39.25,26.38,2.19,-8.75,-2.22,-3.27,-8.95,-2.14,-3.36,49.99
5429239,54.62,-65.94,147.38,0.06,0.03,-0.01,0.14,-0.15,0.04,39.25,24.88,4.00,-8.81,-2.31,-3.32,-8.95,-2.15,-3.36,49.99
5429267,54.81,-65.88,147.25,0.04,0.02,-0.02,0.10,-0.23,0.00,39.25,24.88,4.00,-8.86,-2.41,-3.33,-8.95,-2.16,-3.36,50.01
5429298,54.94,-65.88,147.12,0.00,-0.02,0.00,0.07,-0.26,0.00,39.69,25.56,3.50,-8.86,-2.43,-3.38,-8.95,-2.17,-3.36,50.05
5429327,54.88,-65.88,147.06,-0.02,-0.05,0.03,0.10,-0.18,0.00,39.69,26.00,3.00,-8.86,-2.32,-3.32,-8.95,-2.16,-3.35,50.17
5429352,54.81,-66.00,147.06,-0.01,-0.05,0.04,0.01,-0.08,0.11,39.69,26.00,3.00,-8.92,-2.23,-3.20,-8.96,-2.16,-3.34,49.98
5429381,54.69,-66.06,147.12,-0.02,-0.04,0.03,0.01,-0.10,0.15,39.25,26.00,3.50,-8.95,-2.25,-3.18,-8.96,-2.15,-3.33,49.95
5429410,54.62,-66.19,147.12,-0.01,-0.02,0.02,-0.03,-0.03,0.15,39.25,26.00,3.50,-9.01,-2.18,-3.16,-8.97,-2.14,-3.32,49.95
5429439,54.56,-66.19,147.12,-0.07,0.01,-0.00,-0.11,-0.11,0.07,40.38,25.56,2.69,-9.09,-2.26,-3.24,-8.97,-2.14,-3.32,49.93
5429468,54.44,-66.19,147.25,-0.06,0.03,-0.01,0.00,-0.08,0.02,39.25,26.00,3.50,-8.97,-2.22,-3.31,-8.97,-2.14,-3.33,49.95
5429499,54.31,-66.06,147.38,-0.09,0.04,-0.03,0.06,-0.06,-0.07,39.25,26.00,3.50,-8.89,-2.20,-3.42,-8.96,-2.13,-3.35,49.93
5429527,54.19,-66.00,147.50,-0.09,0.04,-0.03,0.16,0.02,-0.09,39.69,25.56,2.19,-8.78,-2.08,-3.45,-8.95,-2.13,-3.36,49.92
5429552,54.00,-65.94,147.62,-0.08,-0.00,-0.03,0.31,0.09,-0.07,39.69,25.56,2.19,-8.56,-2.02,-3.40,-8.95,-2.13,-3.37,49.92
5429581,53.81,-65.94,147.56,-0.10,-0.07,-0.04,0.46,0.05,0.00,40.00,26.00,3.00,-8.49,-2.08,-3.37,-8.95,-2.13,-3.36,49.84
5429610,53.56,-66.06,147.44,-0.14,-0.10,-0.05,0.51,-0.01,0.06,40.00,26.00,3.00,-8.44,-2.14,-3.29,-8.96,-2.13,-3.35,49.81
5429639,53.31,-66.06,147.44,-0.24,-0.08,-0.07,0.03,-0.06,-0.05,40.00,25.56,4.38,-8.93,-2.19,-3.39,-8.96,-2.13,-3.34,49.81
5429668,52.81,-66.12,147.50,-0.22,-0.07,-0.04,-0.36,-0.13,-0.08,39.69,25.19,3.50,-9.36,-2.27,-3.42,-8.97,-2.12,-3.34,49.78
5429699,52.44,-66.19,147.62,-0.14,-0.03,0.02,-0.43,-0.13,-0.08,39.69,25.19,3.50,-9.41,-2.24,-3.42,-8.97,-2.10,-3.34,49.82
5429727,52.19,-66.25,147.88,-0.03,0.00,0.05,-0.25,-0.05,-0.05,40.38,26.25,3.50,-9.11,-2.11,-3.37,-8.97,-2.09,-3.34,49.90
5429758,52.06,-66.25,148.06,-0.03,0.02,0.02,0.12,0.05,0.00,40.38,26.25,3.50,-8.78,-2.00,-3.35,-8.97,-2.08,-3.34,49.90
5429789,52.06,-66.19,148.12,-0.04,0.03,-0.03,0.21,0.07,-0.23,40.00,25.19,2.56,-8.75,-2.01,-3.59,-8.97,-2.08,-3.35,49.94
5429818,52.06,-66.19,148.06,-0.01,-0.01,-0.04,0.19,0.01,-0.27,39.69,26.00,4.00,-8.78,-2.10,-3.61,-8.97,-2.09,-3.36,50.01
5429848,52.12,-66.12,147.94,0.02,-0.04,-0.03,0.13,-0.08,-0.09,39.69,26.00,4.00,-8.83,-2.19,-3.44,-8.97,-2.10,-3.35,50.09
5429877,52.19,-66.19,147.69,0.02,-0.05,-0.02,0.13,-0.08,-0.04,40.00,26.25,2.56,-8.83,-2.20,-3.38,-8.97,-2.11,-3.34,50.04
5429903,52.25,-66.25,147.56,0.05,-0.05,0.01,0.10,0.00,0.06,40.00,26.25,2.56,-8.88,-2.09,-3.21,-8.97,-2.11,-3.32,50.11
5429931,52.38,-66.31,147.38,0.03,-0.04,0.01,0.02,0.06,0.16,40.38,26.25,3.50,-8.95,-2.05,-3.15,-8.98,-2.12,-3.31,50.03
5429960,52.38,-66.38,147.31,0.03,-0.02,0.01,0.01,0.03,0.18,40.38,26.25,3.50,-8.97,-2.08,-3.12,-8.98,-2.12,-3.30,49.98
5429990,52.44,-66.38,147.31,0.06,0.00,0.03,0.01,-0.03,0.18,40.38,25.19,3.50,-8.97,-2.15,-3.12,-8.98,-2.11,-3.30,50.04
5430018,52.50,-66.38,147.31,0.05,0.02,0.04,0.10,-0.12,0.16,39.25,25.56,3.00,-8.86,-2.25,-3.19,-8.98,-2.11,-3.30,50.03
5430049,52.56,-66.38,147.38,0.02,0.05,0.03,-0.03,-0.24,-0.09,39.25,25.56,3.00,-9.01,-2.35,-3.40,-8.98,-2.11,-3.31,50.05
5430078,52.56,-66.31,147.56,-0.02,0.05,0.04,-0.04,-0.23,-0.11,39.69,25.56,2.56,-9.01,-2.30,-3.48,-8.98,-2.10,-3.32,50.10
5430109,52.50,-66.31,147.75,-0.02,0.02,0.04,0.00,-0.13,-0.10,39.69,25.56,2.56,-8.99,-2.23,-3.44,-8.98,-2.09,-3.33,50.06
5430140,52.44,-66.31,147.88,-0.01,-0.03,0.04,0.10,-0.04,0.01,40.00,26.69,3.50,-8.87,-2.13,-3.31,-8.98,-2.08,-3.33,49.98
5430169,52.38,-66.38,147.94,-0.00,-0.05,0.03,0.15,0.02,0.12,39.69,25.56,3.00,-8.83,-2.05,-3.19,-8.99,-2.07,-3.31,50.00
5430199,52.25,-66.50,147.94,-0.02,-0.04,0.02,0.14,-0.02,0.15,39.69,25.56,3.00,-8.85,-2.09,-3.15,-8.99,-2.07,-3.30,49.98
5430228,52.19,-66.56,147.94,-0.02,-0.02,0.02,0.08,0.01,0.16,41.19,25.19,3.00,-8.97,-1.96,-3.09,-9.00,-2.06,-3.30,49.99
5430259,52.12,-66.62,148.00,-0.01,-0.01,0.02,0.11,0.10,0.13,41.19,25.19,3.00,-8.88,-1.94,-3.16,-9.00,-2.05,-3.29,49.97
5430289,52.06,-66.62,148.06,-0.02,0.00,-0.00,0.17,0.07,0.00,40.38,25.19,4.38,-8.83,-1.98,-3.30,-9.00,-2.05,-3.29,49.95
5430319,52.06,-66.62,148.06,0.02,0.01,-0.01,0.16,0.07,-0.04,39.69,24.75,4.00,-8.83,-1.98,-3.34,-9.00,-2.05,-3.30,49.87
5430350,52.12,-66.56,148.00,0.05,0.01,-0.02,0.27,0.11,-0.07,39.69,24.75,4.00,-8.72,-1.94,-3.37,-9.00,-2.06,-3.30,49.92
5430378,52.31,-66.56,147.88,0.07,-0.00,-0.02,0.27,0.15,-0.03,40.00,25.19,4.00,-8.76,-2.00,-3.36,-8.99,-2.07,-3.30,49.88
5430409,52.56,-66.50,147.62,0.09,-0.02,-0.03,0.09,-0.06,-0.05,40.00,25.19,4.00,-8.90,-2.15,-3.35,-8.99,-2.09,-3.29,49.90
5430439,52.81,-66.50,147.38,0.11,-0.01,0.00,0.01,-0.24,-0.03,41.19,25.19,1.69,-8.97,-2.35,-3.32,-8.99,-2.10,-3.28,49.89
5430469,53.12,-66.50,147.19,0.10,0.00,0.02,-0.02,-0.25,0.00,39.69,25.56,2.56,-9.02,-2.36,-3.28,-8.99,-2.11,-3.28,49.85
5430499,53.25,-66.50,147.06,0.03,0.01,0.02,-0.10,-0.26,-0.03,39.69,25.56,2.56,-9.10,-2.38,-3.31,-8.99,-2.12,-3.27,49.93
5430528,53.25,-66.50,147.06,0.00,0.00,0.03,-0.12,-0.22,-0.02,39.25,25.19,3.00,-9.17,-2.34,-3.30,-8.99,-2.11,-3.27,49.89
5430553,53.25,-66.50,147.12,0.02,0.00,0.03,0.00,-0.05,0.07,39.25,25.19,3.00,-8.99,-2.16,-3.19,-8.99,-2.11,-3.27,49.92
5430584,53.25,-66.56,147.19,-0.01,0.00,0.01,0.15,0.04,0.13,40.38,25.19,2.19,-8.84,-2.07,-3.14,-8.99,-2.11,-3.27,49.86
5430613,53.12,-66.56,147.25,-0.04,0.01,-0.02,0.23,0.07,0.10,40.38,25.19,2.19,-8.76,-2.03,-3.17,-8.99,-2.10,-3.27,49.80
